Packet number,Gyroscope X (deg/s),Gyroscope Y (deg/s),Gyroscope Z (deg/s),Accelerometer X (g),Accelerometer Y (g),Accelerometer Z (g),Magnetometer X (microteslas),Magnetometer Y (microteslas),Magnetometer Z (microteslas),Timestamp
0,-0.08399397025222712,0.04908738521234052,0.284706834231575,-8.76,2.19,1.41,23.0625,14.1875,-39.5625,1746516855.0737684
1,-0.017453292519943295,0.018544123302439753,0.07308566242726255,-9.09,1.81,1.29,23.0625,14.1875,-39.5625,1746516855.09312
2,-0.01090830782496456,0.09708393964218458,0.018544123302439753,-9.19,2.04,1.35,21.1875,13.5,-36.6875,1746516855.1097677
3,-0.04254240051736178,0.16907877128695067,0.0818123086872342,-9.0,2.27,1.37,21.1875,13.5,-36.6875,1746516855.1329637
4,-0.02945243112740431,0.14508049407202864,0.04363323129985824,-9.07,2.2600000000000002,1.3800000000000001,21.1875,13.5,-36.6875,1746516855.149793
5,-0.001090830782496456,0.12326387842209953,-0.006544984694978736,-9.290000000000001,2.22,1.25,23.0625,13.75,-36.25,1746516855.1728015
6,0.007635815477475192,0.15926129424448257,0.037088246604879506,-8.85,2.33,1.23,23.0625,13.75,-36.25,1746516855.1931393
7,0.0545415391248228,0.1341721862470641,-0.0916297857297023,-8.67,2.32,1.25,23.75,13.75,-38.375,1746516855.2099538
8,0.10253809355466686,0.16798794050445423,-0.24980024919168842,-9.13,2.22,0.97,23.75,13.75,-38.375,1746516855.2328012
9,0.05890486225480862,0.27052603405912107,-0.27598018797160334,-9.5,2.37,0.9,23.75,13.75,-38.375,1746516855.2507396
10,-0.025089107997418487,0.33815754257390135,-0.21380283336930536,-9.61,2.2800000000000002,1.01,22.25,13.75,-35.875,1746516855.273268
11,-0.038179077387375956,0.29888763440402893,-0.18762289458939044,-9.5,2.15,0.98,22.25,13.75,-35.875,1746516855.293341
12,0.014180800172453928,0.19525871006686563,-0.2279836335417593,-9.59,1.82,0.93,23.75,14.5,-37.1875,1746516855.3107128
13,0.04799655442984406,0.16253378659197193,-0.15926129424448257,-10.02,2.16,0.92,23.75,14.5,-37.1875,1746516855.3332143
14,0.04145156973486533,0.11780972450961724,-0.04036073895236887,-10.11,2.13,0.9,23.75,14.5,-37.1875,1746516855.3510134
15,-0.04036073895236887,0.003272492347489368,0.10799224746714914,-9.78,2.04,0.87,22.6875,14.0625,-36.6875,1746516855.373068
16,-0.07853981633974483,-0.16471544815696484,0.20725784867432664,-9.42,1.96,1.04,22.6875,14.0625,-36.6875,1746516855.3934858
17,-0.05235987755982989,-0.2923426497090502,0.2879793265790644,-9.32,2.0300000000000002,1.12,22.6875,14.5,-37.1875,1746516855.4113238
18,0.007635815477475192,-0.3108867730114899,0.32179508083645453,-8.97,2.2600000000000002,1.03,22.6875,14.5,-37.1875,1746516855.4331577
19,0.04799655442984406,-0.23561944901923448,0.29343348049154666,-9.01,2.27,1.0,22.6875,14.5,-37.1875,1746516855.4513276
20,0.03490658503988659,-0.07526732399225546,0.2628902185816459,-8.65,2.27,1.11,23.75,15.5625,-36.25,1746516855.4732316
21,0.004363323129985824,0.018544123302439753,0.16035212502697901,-8.59,2.2,1.12,23.75,15.5625,-36.25,1746516855.4933991
22,0.01090830782496456,0.022907446432425576,-0.020725784867432664,-8.790000000000001,2.16,1.08,22.6875,13.5,-37.1875,1746516855.5117629
23,0.02945243112740431,0.03599741582238305,-0.1341721862470641,-9.4,2.4,1.03,22.6875,13.5,-37.1875,1746516855.5331106
24,0.0272707695624114,0.08726646259971647,-0.12544553998709243,-9.48,2.49,1.0,24.0625,13.5,-37.1875,1746516855.5516129
25,-0.02181661564992912,0.12762720155208535,-0.028361600344907856,-9.42,2.34,0.9400000000000001,24.0625,13.5,-37.1875,1746516855.5733564
26,-0.06326818538479445,0.08072147790473774,0.044724062082354694,-9.21,2.35,1.04,24.0625,13.5,-37.1875,1746516855.5935066
27,-0.05126904677733343,0.006544984694978736,0.08726646259971647,-9.13,2.3000000000000003,1.02,23.75,15.5625,-37.5,1746516855.6120524
28,-0.019634954084936207,-0.0719948316447661,0.04908738521234052,-9.55,2.37,1.01,23.75,15.5625,-37.5,1746516855.6331294
29,-0.020725784867432664,-0.0818123086872342,0.0818123086872342,-9.48,2.36,0.88,23.0625,12.25,-37.5,1746516855.6520605
30,-0.061086523819801536,-0.07308566242726255,0.1341721862470641,-9.08,2.38,1.2,23.0625,12.25,-37.5,1746516855.673351
31,-0.07744898555724837,-0.08290313946973066,0.10253809355466686,-9.08,2.37,1.3800000000000001,23.0625,12.25,-37.5,1746516855.6934178
32,-0.038179077387375956,-0.04690572364734761,0.03490658503988659,-9.290000000000001,2.27,0.92,23.75,13.75,-37.1875,1746516855.712473
33,0.01090830782496456,0.025089107997418487,0.013089969389957472,-9.19,2.23,0.8300000000000001,23.75,13.75,-37.1875,1746516855.7332218
34,-0.022907446432425576,0.05672320068981571,0.04799655442984406,-9.27,2.27,1.1300000000000001,23.75,14.5,-36.25,1746516855.7524538
35,-0.0545415391248228,0.008726646259971648,0.018544123302439753,-9.21,2.41,1.24,23.75,14.5,-36.25,1746516855.773361
36,0.04254240051736178,-0.016362461737446838,-0.008726646259971648,-9.08,2.39,1.1,23.75,14.5,-36.25,1746516855.793513
37,0.06544984694978735,-0.022907446432425576,-0.02945243112740431,-9.24,2.4,0.93,23.375,13.0625,-35.875,1746516855.8129303
38,0.028361600344907856,0.026179938779914945,-0.009817477042468103,-9.25,2.5100000000000002,1.01,23.375,13.0625,-35.875,1746516855.8331983
39,0.006544984694978736,0.044724062082354694,-0.00545415391248228,-9.290000000000001,2.52,0.99,24.0625,13.5,-37.1875,1746516855.8527865
40,-0.037088246604879506,0.018544123302439753,-0.006544984694978736,-9.28,2.43,1.06,24.0625,13.5,-37.1875,1746516855.8733149
41,-0.0545415391248228,-0.04254240051736178,-0.009817477042468103,-9.25,2.32,1.09,24.0625,13.5,-37.1875,1746516855.8937085
42,-0.06544984694978735,-0.05999569303730508,0.011999138607461015,-9.26,2.39,1.2,22.25,13.75,-36.25,1746516855.9131415
43,-0.061086523819801536,-0.030543261909900768,0.037088246604879506,-9.39,2.44,1.06,22.25,13.75,-36.25,1746516855.9332628
44,-0.05890486225480862,0.009817477042468103,0.11344640137963143,-9.450000000000001,2.41,1.12,23.0625,13.0625,-37.1875,1746516855.9530978
45,-0.037088246604879506,0.019634954084936207,0.1734420944169365,-9.08,2.39,1.33,23.0625,13.0625,-37.1875,1746516855.9733849
46,0.006544984694978736,-0.019634954084936207,0.1265363707695889,-8.71,2.3000000000000003,1.24,23.0625,13.0625,-37.1875,1746516855.9935598
47,0.03381575425739013,-0.07526732399225546,-0.013089969389957472,-8.86,2.29,0.96,24.5,14.1875,-36.6875,1746516856.0133142
48,0.04036073895236887,-0.04036073895236887,-0.07417649320975901,-9.32,2.43,1.02,24.5,14.1875,-36.6875,1746516856.0332294
49,0.013089969389957472,0.03381575425739013,-0.08290313946973066,-9.53,2.59,1.08,21.875,14.5,-37.1875,1746516856.0532718
50,-0.015271630954950384,0.09053895494720585,-0.01090830782496456,-9.35,2.54,1.16,21.875,14.5,-37.1875,1746516856.0735438
51,-0.003272492347489368,0.032724923474893676,-0.014180800172453928,-9.19,2.44,1.1500000000000001,21.875,14.5,-37.1875,1746516856.0936344
52,0.014180800172453928,-0.039269908169872414,-0.02945243112740431,-9.23,2.2800000000000002,1.1,23.75,13.5,-36.6875,1746516856.1136513
53,0.03599741582238305,-0.004363323129985824,-0.003272492347489368,-9.19,2.46,1.1300000000000001,23.75,13.5,-36.6875,1746516856.133613
54,0.0272707695624114,0.07744898555724837,-0.003272492347489368,-9.16,2.52,1.03,24.0625,14.5,-37.1875,1746516856.1536546
55,-0.025089107997418487,0.09599310885968812,-0.020725784867432664,-9.35,2.54,0.98,24.0625,14.5,-37.1875,1746516856.1740983
56,-0.05126904677733343,0.08835729338221293,0.022907446432425576,-9.18,2.44,1.11,24.0625,14.5,-37.1875,1746516856.196779
57,-0.030543261909900768,0.0272707695624114,0.013089969389957472,-9.15,2.38,1.03,22.25,13.75,-35.875,1746516856.2140157
58,-0.018544123302439753,-0.02945243112740431,0.009817477042468103,-9.18,2.36,1.02,22.25,13.75,-35.875,1746516856.2347662
59,-0.004363323129985824,-0.050178215994836975,0.003272492347489368,-9.49,2.43,1.0,24.5,13.5,-37.5,1746516856.2540228
60,-0.032724923474893676,-0.031634092692397225,0.0545415391248228,-9.53,2.5,1.02,24.5,13.5,-37.5,1746516856.2753656
61,-0.07526732399225546,-0.038179077387375956,0.12435470920459599,-9.44,2.49,1.09,24.5,13.5,-37.5,1746516856.294371
62,-0.08617563181722002,-0.07417649320975901,0.1712604328519436,-9.11,2.42,1.18,23.75,14.1875,-37.5,1746516856.3145473
63,-0.044724062082354694,-0.11780972450961724,0.136353847812057,-8.91,2.41,1.2,23.75,14.1875,-37.5,1746516856.3364644
64,0.01090830782496456,-0.0818123086872342,0.06763150851478027,-9.03,2.4,1.08,22.25,12.25,-35.875,1746516856.3543804
65,0.007635815477475192,0.0272707695624114,0.04363323129985824,-9.01,2.5100000000000002,1.1500000000000001,22.25,12.25,-35.875,1746516856.3757484
66,-0.015271630954950384,0.07090400086226964,0.018544123302439753,-9.01,2.58,1.1300000000000001,22.25,12.25,-35.875,1746516856.3947718
67,-0.00545415391248228,0.06435901616729091,-0.025089107997418487,-8.93,2.58,1.1300000000000001,24.0625,13.0625,-38.0,1746516856.4148018
68,0.022907446432425576,0.0545415391248228,-0.06326818538479445,-8.91,2.57,1.01,24.0625,13.0625,-38.0,1746516856.4364922
69,0.03381575425739013,0.06435901616729091,-0.09926560120717749,-9.08,2.54,0.96,21.5625,13.5,-37.5,1746516856.4547415
70,-0.001090830782496456,0.09053895494720585,-0.11126473981463851,-9.4,2.65,1.0,21.5625,13.5,-37.5,1746516856.4775498
71,-0.04254240051736178,0.11671889372712078,-0.06654067773228381,-9.42,2.61,1.05,21.5625,13.5,-37.5,1746516856.4950967
72,-0.04363323129985824,0.09272061651219876,-0.022907446432425576,-9.450000000000001,2.5500000000000003,1.03,22.6875,12.0,-35.5,1746516856.517964
73,-0.031634092692397225,0.06435901616729091,0.025089107997418487,-9.28,2.46,1.09,22.6875,12.0,-35.5,1746516856.537652
74,-0.019634954084936207,0.025089107997418487,0.02945243112740431,-9.42,2.38,0.97,24.5,13.0625,-38.0,1746516856.555134
75,-0.04036073895236887,-0.020725784867432664,0.06654067773228381,-9.56,2.47,1.05,24.5,13.0625,-38.0,1746516856.5775886
76,-0.05999569303730508,-0.06217735460229799,0.11671889372712078,-9.540000000000001,2.52,1.21,24.5,13.0625,-38.0,1746516856.5955052
77,-0.039269908169872414,-0.08399397025222712,0.16798794050445423,-9.09,2.54,1.31,22.25,14.1875,-36.25,1746516856.6179862
78,0.014180800172453928,-0.11235557059713497,0.12762720155208535,-8.98,2.43,1.02,22.25,14.1875,-36.25,1746516856.6388643
79,0.022907446432425576,-0.0916297857297023,0.07853981633974483,-8.73,2.43,0.96,23.375,12.6875,-36.25,1746516856.6554883
80,0.002181661564992912,-0.032724923474893676,-0.00545415391248228,-8.99,2.5,1.07,23.375,12.6875,-36.25,1746516856.67872
81,0.006544984694978736,0.06763150851478027,-0.05126904677733343,-9.08,2.66,1.17,23.375,12.6875,-36.25,1746516856.6958828
82,0.006544984694978736,0.09708393964218458,-0.07417649320975901,-9.17,2.69,1.02,24.0625,13.75,-37.5,1746516856.7179894
83,-0.007635815477475192,0.0545415391248228,-0.0719948316447661,-9.120000000000001,2.64,0.99,24.0625,13.75,-37.5,1746516856.738782
84,-0.01090830782496456,-0.009817477042468103,-0.06763150851478027,-9.14,2.6,0.9500000000000001,23.0625,13.5,-36.6875,1746516856.7558513
85,-0.00545415391248228,-0.04363323129985824,-0.05235987755982989,-9.38,2.57,0.97,23.0625,13.5,-36.6875,1746516856.7786913
86,-0.019634954084936207,-0.019634954084936207,0.008726646259971648,-9.46,2.61,1.1,23.0625,13.5,-36.6875,1746516856.7961774
87,-0.05890486225480862,-0.014180800172453928,0.05890486225480862,-9.28,2.61,1.08,24.0625,12.0,-37.1875,1746516856.817826
88,-0.07635815477475191,-0.07417649320975901,0.06217735460229799,-9.02,2.47,1.2,24.0625,12.0,-37.1875,1746516856.838968
89,-0.026179938779914945,-0.1439896632895322,-0.003272492347489368,-9.31,2.4,1.18,23.0625,12.6875,-38.0,1746516856.8562202
90,0.020725784867432664,-0.10362892433716332,0.02181661564992912,-9.35,2.52,1.11,23.0625,12.6875,-38.0,1746516856.8788896
91,0.02399827721492203,-0.025089107997418487,0.07744898555724837,-9.19,2.65,1.3,23.0625,12.6875,-38.0,1746516856.8965647
92,0.007635815477475192,0.007635815477475192,0.10362892433716332,-9.09,2.57,1.31,23.0625,13.875,-35.5,1746516856.9184713
93,0.018544123302439753,-0.00545415391248228,0.07963064712224129,-8.9,2.5100000000000002,1.24,23.0625,13.875,-35.5,1746516856.938969
94,0.0272707695624114,-0.05672320068981571,0.018544123302439753,-8.88,2.5100000000000002,1.16,23.375,12.6875,-37.1875,1746516856.956785
95,0.04036073895236887,-0.07853981633974483,-0.055632369907319255,-9.19,2.57,1.03,23.375,12.6875,-37.1875,1746516856.9789422
96,0.02945243112740431,-0.04363323129985824,-0.055632369907319255,-9.24,2.69,1.21,23.375,12.6875,-37.1875,1746516856.99717
97,0.004363323129985824,-0.011999138607461015,-0.04036073895236887,-9.28,2.7,1.25,23.375,12.375,-38.0,1746516857.0185497
98,0.004363323129985824,0.002181661564992912,-0.007635815477475192,-9.28,2.65,1.21,23.375,12.375,-38.0,1746516857.0392313
99,0.02181661564992912,-0.017453292519943295,0.05235987755982989,-9.27,2.66,1.23,21.1875,13.1875,-35.875,1746516857.0571156
100,0.030543261909900768,-0.025089107997418487,0.08617563181722002,-9.05,2.69,1.09,21.1875,13.1875,-35.875,1746516857.079024
101,0.015271630954950384,-0.038179077387375956,0.0719948316447661,-9.03,2.71,1.1500000000000001,23.75,13.5625,-37.1875,1746516857.0974717
102,-0.015271630954950384,-0.0545415391248228,0.022907446432425576,-9.15,2.65,1.16,23.75,13.5625,-37.1875,1746516857.1188896
103,-0.032724923474893676,-0.03381575425739013,-0.014180800172453928,-9.24,2.64,1.11,23.75,13.5625,-37.1875,1746516857.139098
104,-0.030543261909900768,0.006544984694978736,-0.001090830782496456,-9.1,2.68,1.22,21.875,12.375,-37.5,1746516857.1574004
105,-0.022907446432425576,0.031634092692397225,0.001090830782496456,-8.93,2.5500000000000003,1.21,21.875,12.375,-37.5,1746516857.1791148
106,-0.015271630954950384,0.026179938779914945,-0.037088246604879506,-9.0,2.5300000000000002,1.19,22.6875,12.75,-37.1875,1746516857.197858
107,-0.009817477042468103,0.038179077387375956,-0.04254240051736178,-9.02,2.59,1.19,22.6875,12.75,-37.1875,1746516857.2190661
108,-0.007635815477475192,0.03381575425739013,-0.05126904677733343,-9.3,2.56,1.18,22.6875,12.75,-37.1875,1746516857.2391324
109,-0.009817477042468103,0.03490658503988659,-0.05781403147231216,-9.25,2.62,1.24,24.0625,12.75,-38.0,1746516857.2578526
110,0.0,0.05345070834232634,-0.028361600344907856,-9.15,2.49,1.17,24.0625,12.75,-38.0,1746516857.2791007
111,0.009817477042468103,-0.004363323129985824,-0.03381575425739013,-9.18,2.5,1.21,21.875,12.375,-37.5,1746516857.2982395
112,0.01090830782496456,-0.05126904677733343,-0.016362461737446838,-9.3,2.61,1.19,21.875,12.375,-37.5,1746516857.3190196
113,0.02945243112740431,-0.032724923474893676,0.001090830782496456,-9.200000000000001,2.77,1.2,21.875,12.375,-37.5,1746516857.3391297
114,0.032724923474893676,0.032724923474893676,0.02399827721492203,-9.09,2.7,1.12,23.375,13.1875,-35.875,1746516857.3582664
115,-0.00545415391248228,0.05999569303730508,0.01090830782496456,-8.950000000000001,2.5,1.18,23.375,13.1875,-35.875,1746516857.3791487
116,-0.014180800172453928,0.038179077387375956,-0.011999138607461015,-8.96,2.45,1.18,24.5,12.75,-38.75,1746516857.398581
117,0.030543261909900768,0.022907446432425576,-0.07963064712224129,-9.09,2.52,1.05,24.5,12.75,-38.75,1746516857.4190834
118,0.02945243112740431,0.06217735460229799,-0.08726646259971647,-9.16,2.67,1.1500000000000001,24.5,12.75,-38.75,1746516857.4392421
119,0.02399827721492203,0.08508480103472356,-0.08617563181722002,-9.31,2.61,1.02,22.25,12.0625,-37.1875,1746516857.4585967
120,-0.004363323129985824,0.08835729338221293,-0.04254240051736178,-9.31,2.61,1.29,22.25,12.0625,-37.1875,1746516857.4794843
121,-0.002181661564992912,0.06326818538479445,-0.031634092692397225,-9.41,2.56,1.24,23.0625,13.875,-38.0,1746516857.4988787
122,0.026179938779914945,-0.02945243112740431,0.0272707695624114,-9.46,2.49,1.12,23.0625,13.875,-38.0,1746516857.5191493
123,0.007635815477475192,-0.06654067773228381,0.08726646259971647,-9.36,2.56,0.88,23.0625,13.875,-38.0,1746516857.5393262
124,-0.037088246604879506,-0.06763150851478027,0.13199052468207118,-9.24,2.59,1.1300000000000001,23.75,13.5625,-37.5,1746516857.558915
125,-0.04690572364734761,-0.038179077387375956,0.13962634015954636,-8.99,2.62,1.23,23.75,13.5625,-37.5,1746516857.5792348
126,-0.019634954084936207,-0.044724062082354694,0.09272061651219876,-8.98,2.61,1.22,22.6875,13.5625,-35.5,1746516857.5991263
127,0.013089969389957472,-0.0545415391248228,0.014180800172453928,-8.9,2.59,1.1300000000000001,22.6875,13.5625,-35.5,1746516857.619131
128,0.02945243112740431,-0.017453292519943295,-0.06981317007977318,-9.25,2.65,1.1300000000000001,22.6875,13.5625,-35.5,1746516857.6392312
129,0.00545415391248228,0.05672320068981571,-0.06326818538479445,-9.18,2.65,1.1,23.0625,13.5625,-36.6875,1746516857.6591237
130,-0.030543261909900768,0.05672320068981571,-0.06326818538479445,-9.24,2.5500000000000003,1.18,23.0625,13.5625,-36.6875,1746516857.6794305
131,-0.028361600344907856,0.01090830782496456,-0.03490658503988659,-9.1,2.49,1.22,23.375,13.5,-38.0,1746516857.6994884
132,0.0272707695624114,-0.03381575425739013,-0.030543261909900768,-9.06,2.5300000000000002,1.1500000000000001,23.375,13.5,-38.0,1746516857.7194855
133,0.06435901616729091,-0.02399827721492203,-0.044724062082354694,-9.13,2.57,1.07,23.375,13.5,-38.0,1746516857.7394495
134,0.04145156973486533,0.030543261909900768,-0.038179077387375956,-9.22,2.61,1.02,21.5625,13.5,-35.875,1746516857.759487
135,-0.011999138607461015,0.05999569303730508,-0.006544984694978736,-9.26,2.66,1.24,21.5625,13.5,-35.875,1746516857.7797735
136,-0.022907446432425576,0.03490658503988659,-0.002181661564992912,-9.200000000000001,2.64,1.25,24.0625,13.75,-36.25,1746516857.7998488
137,0.016362461737446838,-0.006544984694978736,-0.002181661564992912,-9.05,2.56,1.02,24.0625,13.75,-36.25,1746516857.8207726
138,0.04799655442984406,-0.026179938779914945,-0.04036073895236887,-9.02,2.57,1.02,24.0625,13.75,-36.25,1746516857.8398418
139,0.032724923474893676,-0.007635815477475192,-0.09272061651219876,-9.35,2.56,1.02,22.25,12.6875,-37.1875,1746516857.8604395
140,-0.013089969389957472,0.03490658503988659,-0.06763150851478027,-9.67,2.65,1.16,22.25,12.6875,-37.1875,1746516857.883933
141,-0.050178215994836975,0.03599741582238305,0.039269908169872414,-9.56,2.65,1.2,23.0625,13.0625,-35.5,1746516857.9003057
142,-0.04908738521234052,-0.05126904677733343,0.13744467859455345,-9.01,2.49,1.1500000000000001,23.0625,13.0625,-35.5,1746516857.9226062
143,-0.011999138607461015,-0.14835298641951802,0.1461713248545251,-8.82,2.47,1.17,23.0625,13.0625,-35.5,1746516857.9402735
144,0.039269908169872414,-0.13962634015954636,0.06217735460229799,-8.870000000000001,2.52,1.17,23.0625,13.75,-37.1875,1746516857.9627829
145,0.038179077387375956,-0.03599741582238305,0.002181661564992912,-9.040000000000001,2.6,1.16,23.0625,13.75,-37.1875,1746516857.9830058
146,-0.013089969389957472,0.038179077387375956,-0.020725784867432664,-9.3,2.73,1.16,22.25,12.25,-38.0,1746516858.0007458
147,-0.044724062082354694,0.04254240051736178,0.01090830782496456,-9.19,2.72,1.1500000000000001,22.25,12.25,-38.0,1746516858.0241182
148,-0.030543261909900768,0.001090830782496456,0.02945243112740431,-9.06,2.58,1.11,22.25,12.25,-38.0,1746516858.040971
149,0.001090830782496456,-0.02945243112740431,0.022907446432425576,-9.05,2.54,1.12,23.0625,13.5,-37.5,1746516858.0637157
150,0.007635815477475192,-0.007635815477475192,0.006544984694978736,-9.09,2.59,1.18,23.0625,13.5,-37.5,1746516858.084362
151,-0.017453292519943295,0.04254240051736178,0.001090830782496456,-9.09,2.67,1.25,22.6875,13.75,-37.1875,1746516858.1010327
152,-0.039269908169872414,0.05890486225480862,0.009817477042468103,-9.1,2.64,1.18,22.6875,13.75,-37.1875,1746516858.1244795
153,-0.017453292519943295,0.05126904677733343,0.007635815477475192,-8.950000000000001,2.6,1.19,22.6875,13.75,-37.1875,1746516858.141124
154,0.014180800172453928,0.02181661564992912,-0.026179938779914945,-8.99,2.54,1.1400000000000001,22.25,12.25,-38.0,1746516858.164061
155,0.02181661564992912,0.037088246604879506,-0.04690572364734761,-9.27,2.68,1.07,22.25,12.25,-38.0,1746516858.1847148
156,-0.008726646259971648,0.061086523819801536,-0.013089969389957472,-9.41,2.71,1.05,23.75,12.6875,-36.25,1746516858.201363
157,-0.044724062082354694,0.055632369907319255,0.04254240051736178,-9.22,2.72,1.1300000000000001,23.75,12.6875,-36.25,1746516858.2245872
158,-0.03381575425739013,0.016362461737446838,0.04690572364734761,-8.99,2.61,1.1400000000000001,23.75,12.6875,-36.25,1746516858.2414503
159,0.003272492347489368,0.00545415391248228,0.014180800172453928,-8.950000000000001,2.5500000000000003,1.11,23.0625,13.5,-35.0,1746516858.2646797
160,0.019634954084936207,0.04254240051736178,-0.031634092692397225,-9.06,2.5500000000000003,1.03,23.0625,13.5,-35.0,1746516858.2848005
161,-0.003272492347489368,0.08508480103472356,-0.038179077387375956,-9.19,2.6,1.04,22.6875,11.25,-37.5,1746516858.30174
162,-0.022907446432425576,0.1090830782496456,-0.006544984694978736,-9.27,2.61,1.09,22.6875,11.25,-37.5,1746516858.324945
163,0.0,0.11235557059713497,0.02399827721492203,-9.1,2.63,1.1400000000000001,22.6875,11.25,-37.5,1746516858.341826
164,0.026179938779914945,0.08290313946973066,-0.003272492347489368,-9.05,2.57,0.99,24.875,13.5625,-37.1875,1746516858.3643973
165,0.03599741582238305,0.05672320068981571,-0.05345070834232634,-9.15,2.61,1.04,24.875,13.5625,-37.1875,1746516858.385077
166,0.039269908169872414,0.07308566242726255,-0.06872233929727672,-9.21,2.56,0.77,23.0625,13.875,-36.25,1746516858.4021084
167,0.011999138607461015,0.09272061651219876,-0.04799655442984406,-9.47,2.66,1.02,23.0625,13.875,-36.25,1746516858.425121
168,-0.003272492347489368,0.11344640137963143,0.020725784867432664,-9.450000000000001,2.68,1.1300000000000001,23.0625,13.875,-36.25,1746516858.4421744
169,0.019634954084936207,0.05235987755982989,0.04363323129985824,-9.38,2.68,0.98,23.75,12.0,-37.1875,1746516858.464773
170,0.015271630954950384,-0.04363323129985824,0.06435901616729091,-9.24,2.57,0.71,23.75,12.0,-37.1875,1746516858.4850383
171,-0.014180800172453928,-0.06763150851478027,0.08072147790473774,-9.15,2.63,0.89,24.875,13.5625,-36.25,1746516858.5024693
172,-0.016362461737446838,0.003272492347489368,0.0818123086872342,-9.05,2.73,1.01,24.875,13.5625,-36.25,1746516858.5250928
173,-0.015271630954950384,0.06981317007977318,0.05999569303730508,-9.08,2.74,1.0,24.875,13.5625,-36.25,1746516858.5428245
174,-0.02181661564992912,0.07963064712224129,0.04036073895236887,-8.870000000000001,2.72,0.93,22.6875,13.5625,-35.5,1746516858.5646608
175,-0.013089969389957472,0.03599741582238305,-0.028361600344907856,-9.06,2.6,0.86,22.6875,13.5625,-35.5,1746516858.585224
176,0.003272492347489368,0.04581489286485115,-0.06763150851478027,-9.1,2.62,0.88,23.75,12.0,-37.1875,1746516858.6032577
177,0.0,0.08835729338221293,-0.05781403147231216,-9.36,2.7,0.86,23.75,12.0,-37.1875,1746516858.625289
178,-0.026179938779914945,0.08072147790473774,-0.04363323129985824,-9.38,2.69,0.86,25.5625,13.5625,-36.25,1746516858.6431565
179,-0.04908738521234052,0.050178215994836975,0.006544984694978736,-9.27,2.7,0.92,25.5625,13.5625,-36.25,1746516858.66489
180,-0.03381575425739013,0.028361600344907856,0.04799655442984406,-9.25,2.59,0.84,25.5625,13.5625,-36.25,1746516858.6851552
181,-0.02945243112740431,-0.002181661564992912,0.037088246604879506,-9.36,2.6,0.8200000000000001,23.375,13.5,-35.875,1746516858.7034621
182,-0.050178215994836975,-0.019634954084936207,0.06435901616729091,-9.39,2.72,1.08,23.375,13.5,-35.875,1746516858.7254024
183,-0.06326818538479445,-0.05126904677733343,0.08290313946973066,-9.23,2.7800000000000002,1.04,24.0625,12.6875,-36.25,1746516858.7435417
184,-0.04799655442984406,-0.08072147790473774,0.0719948316447661,-9.040000000000001,2.69,0.91,24.0625,12.6875,-36.25,1746516858.7649465
185,-0.031634092692397225,-0.07744898555724837,0.10799224746714914,-8.85,2.58,0.93,24.0625,12.6875,-36.25,1746516858.785242
186,-0.018544123302439753,-0.037088246604879506,0.10035643198967395,-8.83,2.59,0.9400000000000001,24.5,14.1875,-36.6875,1746516858.8039536
187,-0.011999138607461015,-0.019634954084936207,0.04145156973486533,-8.98,2.67,0.81,24.5,14.1875,-36.6875,1746516858.8250365
188,-0.008726646259971648,0.001090830782496456,0.01090830782496456,-9.0,2.75,1.03,23.0625,12.0,-35.875,1746516858.8447905
189,0.016362461737446838,0.022907446432425576,0.002181661564992912,-9.040000000000001,2.79,0.96,23.0625,12.0,-35.875,1746516858.864862
190,0.031634092692397225,0.018544123302439753,-0.04145156973486533,-9.040000000000001,2.74,0.9400000000000001,23.0625,12.0,-35.875,1746516858.8854005
191,0.019634954084936207,0.020725784867432664,-0.08617563181722002,-9.040000000000001,2.73,0.96,25.25,12.0,-36.25,1746516858.904268
192,0.016362461737446838,0.05890486225480862,-0.08726646259971647,-9.22,2.71,0.87,25.25,12.0,-36.25,1746516858.9253256
193,0.014180800172453928,0.0818123086872342,-0.10690141668465268,-9.35,2.71,0.85,24.0625,13.875,-36.6875,1746516858.9444072
194,0.004363323129985824,0.09053895494720585,-0.08508480103472356,-9.34,2.72,0.84,24.0625,13.875,-36.6875,1746516858.9650037
195,-0.018544123302439753,0.03599741582238305,-0.030543261909900768,-9.36,2.69,0.9,24.0625,13.875,-36.6875,1746516858.9853091
196,-0.011999138607461015,-0.011999138607461015,-0.002181661564992912,-9.36,2.69,0.78,23.0625,12.0,-35.5,1746516859.005072
197,-0.020725784867432664,-0.06326818538479445,0.032724923474893676,-9.3,2.72,0.86,23.0625,12.0,-35.5,1746516859.025411
198,-0.030543261909900768,-0.08508480103472356,0.03490658503988659,-9.3,2.72,0.93,24.0625,12.25,-36.6875,1746516859.0446975
199,-0.050178215994836975,-0.07526732399225546,0.09272061651219876,-9.06,2.68,0.96,24.0625,12.25,-36.6875,1746516859.0651202
200,-0.05126904677733343,-0.06435901616729091,0.08072147790473774,-8.9,2.63,1.01,24.0625,12.25,-36.6875,1746516859.0853646
201,-0.031634092692397225,-0.05345070834232634,0.032724923474893676,-8.9,2.65,1.02,23.375,13.1875,-36.6875,1746516859.105248
202,0.003272492347489368,-0.028361600344907856,-0.025089107997418487,-8.97,2.68,1.0,23.375,13.1875,-36.6875,1746516859.1254942
203,0.01090830782496456,0.009817477042468103,-0.05345070834232634,-9.200000000000001,2.72,0.89,22.6875,12.0625,-35.5,1746516859.1451318
204,0.002181661564992912,0.06544984694978735,-0.030543261909900768,-9.19,2.77,0.89,22.6875,12.0625,-35.5,1746516859.1664646
205,-0.00545415391248228,0.05672320068981571,-0.018544123302439753,-9.19,2.72,0.9500000000000001,22.6875,12.0625,-35.5,1746516859.1855092
206,-0.00545415391248228,0.001090830782496456,-0.008726646259971648,-9.200000000000001,2.63,0.99,25.25,12.375,-37.5,1746516859.2052093
207,0.007635815477475192,-0.04036073895236887,-0.001090830782496456,-9.21,2.67,0.9,25.25,12.375,-37.5,1746516859.2253823
208,0.01090830782496456,-0.04908738521234052,0.00545415391248228,-9.19,2.69,0.9400000000000001,23.0,13.5625,-35.875,1746516859.2453504
209,0.00545415391248228,-0.05235987755982989,0.001090830782496456,-9.3,2.75,0.87,23.0,13.5625,-35.875,1746516859.2653377
210,0.001090830782496456,-0.032724923474893676,0.02181661564992912,-9.19,2.77,0.87,23.0,13.5625,-35.875,1746516859.2855647
211,-0.003272492347489368,-0.017453292519943295,0.025089107997418487,-9.120000000000001,2.71,0.92,24.0625,11.375,-35.875,1746516859.3055754
212,-0.015271630954950384,-0.025089107997418487,0.018544123302439753,-9.08,2.59,0.77,24.0625,11.375,-35.875,1746516859.3265166
213,-0.018544123302439753,-0.04581489286485115,-0.006544984694978736,-8.91,2.62,1.21,23.0625,12.75,-35.875,1746516859.3456817
214,-0.001090830782496456,-0.039269908169872414,-0.06435901616729091,-9.120000000000001,2.6,1.05,23.0625,12.75,-35.875,1746516859.366569
215,0.018544123302439753,0.006544984694978736,-0.05672320068981571,-9.22,2.74,1.08,23.0625,12.75,-35.875,1746516859.3859499
216,0.02181661564992912,0.0272707695624114,-0.022907446432425576,-9.21,2.65,0.65,23.75,12.375,-36.6875,1746516859.4070647
217,-0.013089969389957472,-0.016362461737446838,0.02945243112740431,-9.06,2.61,0.85,23.75,12.375,-36.6875,1746516859.4285023
218,-0.004363323129985824,-0.06654067773228381,0.031634092692397225,-8.96,2.63,1.19,23.375,12.375,-36.6875,1746516859.4460394
219,0.044724062082354694,-0.04799655442984406,-0.006544984694978736,-8.99,2.73,1.07,23.375,12.375,-36.6875,1746516859.4675767
220,0.05890486225480862,0.003272492347489368,-0.04581489286485115,-9.11,2.86,0.93,23.375,12.375,-36.6875,1746516859.4863524
221,0.032724923474893676,0.05781403147231216,-0.04254240051736178,-9.200000000000001,2.85,0.91,24.0625,12.0625,-37.5,1746516859.5063171
222,0.003272492347489368,0.06654067773228381,-0.016362461737446838,-9.17,2.7800000000000002,0.96,24.0625,12.0625,-37.5,1746516859.5285077
223,-0.006544984694978736,0.016362461737446838,-0.014180800172453928,-9.200000000000001,2.6,0.97,23.0625,13.5625,-35.875,1746516859.5483618
224,-0.004363323129985824,-0.017453292519943295,0.01090830782496456,-9.14,2.65,0.96,23.0625,13.5625,-35.875,1746516859.5673735
225,-0.00545415391248228,-0.031634092692397225,0.0,-9.17,2.74,0.99,23.0625,13.5625,-35.875,1746516859.5866094
226,-0.008726646259971648,-0.008726646259971648,-0.02399827721492203,-9.11,2.68,0.99,24.875,12.0625,-38.0,1746516859.607022
227,0.0,0.017453292519943295,-0.04145156973486533,-9.120000000000001,2.57,1.0,24.875,12.0625,-38.0,1746516859.6301587
228,0.001090830782496456,0.039269908169872414,-0.04908738521234052,-9.23,2.56,0.99,23.75,13.1875,-35.5,1746516859.6467488
229,0.002181661564992912,0.037088246604879506,-0.03599741582238305,-9.31,2.63,1.11,23.75,13.1875,-35.5,1746516859.6687474
230,0.016362461737446838,0.0,-0.009817477042468103,-9.450000000000001,2.67,0.86,23.75,13.1875,-35.5,1746516859.6870427
231,0.011999138607461015,-0.0272707695624114,0.04254240051736178,-9.24,2.73,1.02,22.25,12.375,-35.875,1746516859.7098536
232,0.003272492347489368,-0.07526732399225546,0.04254240051736178,-9.18,2.6,0.92,22.25,12.375,-35.875,1746516859.7304943
233,0.00545415391248228,-0.09053895494720585,0.06435901616729091,-9.07,2.63,1.02,24.5,12.375,-38.375,1746516859.7471516
234,0.026179938779914945,-0.08835729338221293,0.05126904677733343,-9.07,2.75,0.98,24.5,12.375,-38.375,1746516859.7696497
235,0.0272707695624114,-0.04363323129985824,0.05890486225480862,-8.96,2.77,1.0,24.5,12.375,-38.375,1746516859.7878273
236,0.015271630954950384,-0.015271630954950384,0.030543261909900768,-8.97,2.7600000000000002,1.01,23.375,12.0625,-37.1875,1746516859.8100135
237,0.011999138607461015,0.008726646259971648,-0.00545415391248228,-9.0,2.74,1.09,23.375,12.0625,-37.1875,1746516859.8308482
238,0.020725784867432664,0.028361600344907856,-0.04581489286485115,-9.13,2.75,1.02,22.6875,12.375,-35.5,1746516859.8475723
239,0.017453292519943295,0.028361600344907856,-0.04799655442984406,-9.27,2.7800000000000002,0.99,22.6875,12.375,-35.5,1746516859.8700078
240,0.003272492347489368,0.026179938779914945,0.002181661564992912,-9.18,2.8000000000000003,1.04,22.6875,12.375,-35.5,1746516859.8887167
241,-0.00545415391248228,0.019634954084936207,0.019634954084936207,-9.08,2.79,0.99,24.5,12.75,-37.5,1746516859.9107032
242,-0.011999138607461015,0.018544123302439753,0.009817477042468103,-9.06,2.71,0.89,24.5,12.75,-37.5,1746516859.9310787
243,-0.02399827721492203,-0.004363323129985824,-0.01090830782496456,-9.15,2.63,0.99,22.6875,12.75,-35.5,1746516859.9479227
244,-0.03490658503988659,-0.013089969389957472,0.002181661564992912,-9.23,2.66,0.99,22.6875,12.75,-35.5,1746516859.9706244
245,-0.04254240051736178,-0.02399827721492203,0.04036073895236887,-9.21,2.7,1.0,22.6875,12.75,-35.5,1746516859.9882946
246,-0.04254240051736178,-0.04254240051736178,0.05672320068981571,-9.07,2.75,1.11,23.375,13.875,-35.875,1746516860.0105371
247,-0.014180800172453928,-0.03490658503988659,0.020725784867432664,-8.88,2.64,1.02,23.375,13.875,-35.875,1746516860.0311074
248,0.006544984694978736,0.001090830782496456,-0.038179077387375956,-8.96,2.58,0.98,24.0625,12.0625,-37.5,1746516860.0483325
249,0.007635815477475192,0.03490658503988659,-0.08290313946973066,-9.23,2.65,1.01,24.0625,12.0625,-37.5,1746516860.0706553
250,0.0,0.06872233929727672,-0.050178215994836975,-9.290000000000001,2.77,1.07,24.0625,12.0625,-37.5,1746516860.0889533
251,0.0,0.0719948316447661,-0.017453292519943295,-9.05,2.7,0.97,22.6875,13.1875,-35.875,1746516860.110825
252,0.016362461737446838,0.03599741582238305,-0.02181661564992912,-9.09,2.69,0.97,22.6875,13.1875,-35.875,1746516860.1315262
253,0.03381575425739013,0.017453292519943295,-0.03599741582238305,-9.09,2.7,0.99,24.875,13.1875,-35.0,1746516860.148997
254,0.03381575425739013,0.02399827721492203,-0.039269908169872414,-9.3,2.71,0.9,24.875,13.1875,-35.0,1746516860.1708913
255,0.001090830782496456,0.03381575425739013,0.002181661564992912,-9.24,2.7800000000000002,1.01,24.5,13.1875,-37.1875,1746516860.1901546
256,-0.026179938779914945,0.007635815477475192,0.015271630954950384,-9.18,2.7600000000000002,0.93,24.5,13.1875,-37.1875,1746516860.2109382
257,-0.0272707695624114,-0.011999138607461015,0.006544984694978736,-9.13,2.68,0.97,24.5,13.1875,-37.1875,1746516860.2311296
258,-0.013089969389957472,-0.0272707695624114,-0.019634954084936207,-9.21,2.69,0.89,23.375,13.5625,-37.5,1746516860.2493289
259,-0.02181661564992912,0.00545415391248228,0.011999138607461015,-9.23,2.7800000000000002,1.03,23.375,13.5625,-37.5,1746516860.270856
260,-0.055632369907319255,0.011999138607461015,0.04145156973486533,-9.27,2.7800000000000002,1.01,24.0625,13.5625,-35.875,1746516860.289955
261,-0.07526732399225546,0.004363323129985824,0.05345070834232634,-8.93,2.77,1.1400000000000001,24.0625,13.5625,-35.875,1746516860.3109262
262,-0.07963064712224129,-0.020725784867432664,0.020725784867432664,-9.1,2.58,0.99,24.0625,13.5625,-35.875,1746516860.3315222
263,-0.08726646259971647,-0.039269908169872414,-0.017453292519943295,-9.08,2.64,1.06,24.875,12.375,-38.0,1746516860.3497617
264,-0.06654067773228381,-0.02945243112740431,-0.013089969389957472,-9.13,2.63,0.79,24.875,12.375,-38.0,1746516860.3708425
265,-0.05890486225480862,-0.003272492347489368,0.03381575425739013,-9.15,2.65,0.86,21.875,13.5625,-35.0,1746516860.390036
266,-0.06654067773228381,-0.014180800172453928,0.05999569303730508,-9.0,2.68,1.1300000000000001,21.875,13.5625,-35.0,1746516860.410946
267,-0.050178215994836975,-0.05999569303730508,0.044724062082354694,-9.1,2.63,1.06,21.875,13.5625,-35.0,1746516860.4315364
268,0.019634954084936207,-0.044724062082354694,0.025089107997418487,-9.17,2.7600000000000002,1.1,23.375,13.5625,-35.5,1746516860.450189
269,0.05235987755982989,0.04036073895236887,0.05345070834232634,-9.200000000000001,2.79,1.01,23.375,13.5625,-35.5,1746516860.4710119
270,0.031634092692397225,0.04036073895236887,0.032724923474893676,-9.38,2.72,0.97,24.0625,11.6875,-38.375,1746516860.490491
271,-0.003272492347489368,0.006544984694978736,0.06217735460229799,-9.13,2.84,1.2,24.0625,11.6875,-38.375,1746516860.511063
272,0.020725784867432664,-0.05781403147231216,0.055632369907319255,-9.17,2.83,1.04,24.0625,11.6875,-38.375,1746516860.5315397
273,0.0272707695624114,-0.05345070834232634,0.055632369907319255,-8.97,2.85,1.0,21.875,13.1875,-36.6875,1746516860.5505633
274,0.018544123302439753,0.0,0.04581489286485115,-9.09,2.83,0.91,21.875,13.1875,-36.6875,1746516860.570942
275,-0.019634954084936207,0.0272707695624114,0.05999569303730508,-9.07,2.84,1.09,24.0625,13.1875,-37.1875,1746516860.5908177
276,-0.04363323129985824,0.06654067773228381,0.06654067773228381,-8.93,2.91,1.08,24.0625,13.1875,-37.1875,1746516860.6112645
277,-0.04690572364734761,0.04908738521234052,0.04036073895236887,-8.950000000000001,2.92,1.06,24.0625,13.1875,-37.1875,1746516860.6317983
278,-0.044724062082354694,0.011999138607461015,0.008726646259971648,-9.14,2.88,0.8200000000000001,22.6875,11.375,-37.5,1746516860.6509998
279,-0.04690572364734761,0.025089107997418487,0.039269908169872414,-9.040000000000001,2.96,0.98,22.6875,11.375,-37.5,1746516860.6710577
280,-0.037088246604879506,0.02399827721492203,-0.015271630954950384,-9.03,2.84,0.98,22.25,12.75,-35.5,1746516860.6911867
281,-0.07308566242726255,0.04145156973486533,-0.038179077387375956,-9.18,2.79,0.97,22.25,12.75,-35.5,1746516860.7112145
282,-0.11017390903214205,0.04145156973486533,-0.003272492347489368,-9.15,2.77,1.05,22.25,12.75,-35.5,1746516860.731648
283,-0.10362892433716332,-0.009817477042468103,0.016362461737446838,-9.200000000000001,2.82,1.03,24.0625,13.875,-35.875,1746516860.7511587
284,-0.07744898555724837,-0.04908738521234052,0.05781403147231216,-9.39,2.82,1.02,24.0625,13.875,-35.875,1746516860.771172
285,-0.06435901616729091,-0.06544984694978735,0.12435470920459599,-9.43,2.92,1.11,23.375,12.375,-37.1875,1746516860.7914665
286,-0.07744898555724837,-0.07744898555724837,0.17889624832941878,-9.27,2.97,1.1500000000000001,23.375,12.375,-37.1875,1746516860.811477
287,-0.07308566242726255,-0.10035643198967395,0.21598449493429828,-9.1,2.86,1.17,23.375,12.375,-37.1875,1746516860.8318777
288,-0.04690572364734761,-0.11017390903214205,0.22252947962927702,-8.81,2.93,1.1500000000000001,22.6875,13.1875,-34.6875,1746516860.852876
289,-0.01090830782496456,-0.1439896632895322,0.16144295580947549,-8.93,2.75,1.03,22.6875,13.1875,-34.6875,1746516860.872594
290,-0.015271630954950384,-0.1090830782496456,0.14835298641951802,-9.16,2.9,1.24,23.75,12.75,-37.1875,1746516860.8917983
291,-0.04036073895236887,-0.04581489286485115,0.19198621771937624,-9.18,3.08,1.26,23.75,12.75,-37.1875,1746516860.9133334
292,-0.039269908169872414,-0.04908738521234052,0.2378011105842274,-8.71,3.0100000000000002,1.09,23.75,12.75,-37.1875,1746516860.9322603
293,-0.028361600344907856,-0.14180800172453928,0.14726215563702155,-8.76,3.04,1.24,23.0625,11.6875,-37.5,1746516860.9534872
294,-0.01090830782496456,-0.12326387842209953,0.11344640137963143,-9.24,3.33,1.17,23.0625,11.6875,-37.5,1746516860.9736347
295,-0.05235987755982989,-0.04254240051736178,0.22252947962927702,-9.58,3.5700000000000003,0.96,23.75,13.1875,-36.25,1746516860.9922209
296,-0.1559888018969932,-0.0818123086872342,0.4821472058634335,-9.11,3.47,1.22,23.75,13.1875,-36.25,1746516861.0147042
297,-0.20507618710933373,-0.2279836335417593,0.5345070834232635,-8.8,3.42,1.32,23.75,13.1875,-36.25,1746516861.0326946
298,-0.1832595714594046,-0.28361600344907856,0.46142142099600086,-8.69,3.64,1.33,23.0625,12.75,-36.25,1746516861.0546749
299,-0.17562375598192942,-0.21380283336930536,0.4188790204786391,-8.09,3.61,1.33,23.0625,12.75,-36.25,1746516861.0747118
300,-0.18871372537188688,-0.13308135546456762,0.22362031041177347,-8.15,3.52,1.41,22.6875,10.5625,-37.5,1746516861.0925744
301,-0.21707532571679475,0.007635815477475192,0.08508480103472356,-8.16,3.43,1.62,22.6875,10.5625,-37.5,1746516861.1158988
302,-0.1930770485018727,0.12871803233458182,-0.10035643198967395,-8.51,3.38,1.58,22.6875,10.5625,-37.5,1746516861.1327224
303,-0.10253809355466686,0.17998707911191522,-0.17562375598192942,-8.69,3.2,1.57,23.0625,11.6875,-36.25,1746516861.1551332
304,0.039269908169872414,0.16035212502697901,-0.2279836335417593,-9.02,2.97,1.56,23.0625,11.6875,-36.25,1746516861.1757672
305,0.14289883250703572,0.136353847812057,-0.13853550937704992,-9.26,3.17,1.6,21.875,12.375,-38.375,1746516861.1930122
306,0.16689710972195776,0.07417649320975901,-0.04690572364734761,-9.53,3.27,1.3900000000000001,21.875,12.375,-38.375,1746516861.2162025
307,0.10144726277217041,-0.02181661564992912,0.05235987755982989,-8.63,3.62,1.41,21.875,12.375,-38.375,1746516861.2335072
308,0.1461713248545251,-0.08072147790473774,-0.16144295580947549,-8.57,3.54,1.46,22.25,11.25,-37.1875,1746516861.2559483
309,0.19525871006686563,0.04581489286485115,-0.2879793265790644,-8.72,3.36,1.34,22.25,11.25,-37.1875,1746516861.2764652
310,0.12762720155208535,0.13853550937704992,-0.3141592653589793,-8.46,3.17,1.01,23.0625,12.0,-37.5,1746516861.2933335
311,0.06544984694978735,0.1810779098944117,-0.4854196982109229,-8.15,3.18,1.43,23.0625,12.0,-37.5,1746516861.3168116
312,0.06981317007977318,0.3425208657038872,-0.6403176693254197,-8.5,3.06,1.21,23.0625,12.0,-37.5,1746516861.3334389
313,0.06654067773228381,0.5683228376806536,-0.6305001922829515,-8.620000000000001,3.08,0.88,21.875,12.0,-36.6875,1746516861.356227
314,0.028361600344907856,0.6217735460229799,-0.5912302841130791,-9.72,2.85,0.72,21.875,12.0,-36.6875,1746516861.3767993
315,-0.006544984694978736,0.7123125009701857,-0.26070855701665296,-10.03,3.33,0.98,23.375,11.5625,-35.875,1746516861.3936622
316,-0.04908738521234052,0.7308566242726255,0.09708393964218458,-9.71,3.4,0.72,23.375,11.5625,-35.875,1746516861.4170206
317,-0.12435470920459599,0.5312345910757741,0.2628902185816459,-9.32,3.33,0.5700000000000001,23.375,11.5625,-35.875,1746516861.4337678
318,-0.1832595714594046,0.28907015736156083,0.385063266221249,-9.53,3.17,0.48,25.5625,13.5,-35.5,1746516861.4566803
319,-0.19744037163185854,0.25743606466916363,0.5017821599483697,-9.43,3.4,0.56,25.5625,13.5,-35.5,1746516861.4767723
320,-0.20398535632683726,0.28034351110158917,0.5977752688080579,-9.28,3.56,0.5,24.5,13.0625,-35.875,1746516861.4939945
321,-0.27707101875409984,0.22471114119426994,0.6381360077604268,-8.9,3.5300000000000002,0.53,24.5,13.0625,-35.875,1746516861.5167766
322,-0.3937899124812206,0.09708393964218458,0.5672320068981571,-8.86,3.45,0.51,24.5,13.0625,-35.875,1746516861.5344553
323,-0.4526947747360292,0.05999569303730508,0.45814892864851153,-8.88,3.64,0.78,25.25,11.5625,-34.6875,1746516861.5566893
324,-0.44724062082354693,0.04799655442984406,0.38942658935123475,-9.4,3.7600000000000002,0.56,25.25,11.5625,-34.6875,1746516861.5769303
325,-0.39051742013373125,0.05126904677733343,0.4919646829059016,-8.950000000000001,4.0200000000000005,0.62,26.6875,12.6875,-34.1875,1746516861.5943723
326,-0.3294308963139297,-0.07308566242726255,0.46687557490848314,-8.16,3.75,0.65,26.6875,12.6875,-34.1875,1746516861.6167483
327,-0.3392483733563978,-0.2596177262341565,0.22580197197676638,-8.56,3.6,0.86,26.6875,12.6875,-34.1875,1746516861.6350837
328,-0.33488505022641196,-0.2007128639793479,0.21598449493429828,-9.63,3.75,0.61,25.5625,11.5625,-33.875,1746516861.6568053
329,-0.28688849579656794,0.014180800172453928,0.41560652813114973,-8.61,3.58,0.53,25.5625,11.5625,-33.875,1746516861.676962
330,-0.29343348049154666,0.04690572364734761,0.5028729907308662,-8.24,3.59,0.5700000000000001,26.25,12.0,-34.6875,1746516861.694941
331,-0.3719732968312915,-0.13853550937704992,0.3763366199612773,-8.3,3.27,1.2,26.25,12.0,-34.6875,1746516861.7171872
332,-0.3916082509162277,-0.32506757318394386,0.2530727415391778,-8.24,3.2800000000000002,1.44,26.25,12.0,-34.6875,1746516861.7350345
333,-0.2279836335417593,-0.4243331743911214,0.06763150851478027,-8.59,3.37,1.33,26.6875,13.0625,-34.1875,1746516861.756827
334,0.10799224746714914,-0.3239767424014474,0.032724923474893676,-8.0,3.63,0.6,26.6875,13.0625,-34.1875,1746516861.7770557
335,0.35779249665883756,-0.12762720155208535,-0.013089969389957472,-7.83,3.81,0.56,24.5,12.0,-34.6875,1746516861.795352
336,0.4341506514335895,-0.015271630954950384,-0.21271200258680892,-8.55,3.75,0.44,24.5,12.0,-34.6875,1746516861.8170736
337,0.3763366199612773,0.06326818538479445,-0.3174317577064687,-8.85,3.81,0.38,25.5625,10.5,-34.6875,1746516861.8354392
338,0.30543261909900765,0.2007128639793479,-0.1832595714594046,-8.700000000000001,4.1,0.49,25.5625,10.5,-34.6875,1746516861.856878
339,0.23125612588924865,0.2923426497090502,-0.03381575425739013,-8.74,4.37,0.68,25.5625,10.5,-34.6875,1746516861.8770823
340,0.1439896632895322,0.24980024919168842,0.001090830782496456,-8.85,4.23,1.02,26.0,11.5625,-35.875,1746516861.895729
341,0.002181661564992912,0.12217304763960307,0.04145156973486533,-8.8,4.17,1.36,26.0,11.5625,-35.875,1746516861.917083
342,-0.12980886311707826,-0.06217735460229799,-0.011999138607461015,-9.08,4.08,1.1300000000000001,25.0,10.0625,-34.6875,1746516861.9359193
343,-0.09053895494720585,-0.04254240051736178,-0.013089969389957472,-8.69,4.21,0.61,25.0,10.0625,-34.6875,1746516861.9571033
344,-0.017453292519943295,0.016362461737446838,-0.10471975511965978,-8.96,4.32,0.55,25.0,10.0625,-34.6875,1746516861.9771626
345,-0.028361600344907856,0.12762720155208535,-0.10581058590215622,-8.9,4.26,0.61,26.75,10.875,-35.0625,1746516861.9961295
346,-0.11344640137963143,0.17453292519943295,-0.02181661564992912,-9.32,4.08,0.61,26.75,10.875,-35.0625,1746516862.0170157
347,-0.13962634015954636,0.17235126363444003,0.0916297857297023,-8.99,3.88,0.74,25.6875,12.6875,-34.6875,1746516862.0364683
348,-0.14508049407202864,0.0916297857297023,0.29561514205653955,-8.92,3.89,0.86,25.6875,12.6875,-34.6875,1746516862.0570602
349,-0.07090400086226964,0.003272492347489368,0.4286964975211072,-8.34,3.7800000000000002,1.1300000000000001,25.6875,12.6875,-34.6875,1746516862.0772526
350,0.007635815477475192,-0.1559888018969932,0.32506757318394386,-8.56,3.88,0.98,25.0,10.875,-34.1875,1746516862.096458
351,0.09381144729469522,-0.2301652951067522,0.2279836335417593,-8.28,3.79,0.62,25.0,10.875,-34.1875,1746516862.1171727
352,0.11344640137963143,-0.19744037163185854,0.21271200258680892,-8.2,4.0600000000000005,1.03,26.75,10.0625,-36.25,1746516862.136579
353,0.1461713248545251,0.08508480103472356,0.12435470920459599,-8.06,4.14,1.07,26.75,10.0625,-36.25,1746516862.157022
354,0.13308135546456762,0.210530341021816,0.008726646259971648,-8.040000000000001,3.9,0.62,26.75,10.0625,-36.25,1746516862.177146
355,0.11562806294462433,0.20943951023931956,-0.055632369907319255,-8.24,3.89,0.62,25.375,10.875,-35.5,1746516862.1967742
356,0.07526732399225546,0.11453723216212788,-0.09381144729469522,-8.540000000000001,3.98,0.74,25.375,10.875,-35.5,1746516862.2172432
357,0.09926560120717749,0.07090400086226964,-0.03381575425739013,-8.65,4.08,0.8200000000000001,26.0,9.5,-35.5,1746516862.2372725
358,0.14508049407202864,0.05890486225480862,0.04254240051736178,-8.74,4.17,0.64,26.0,9.5,-35.5,1746516862.2571223
359,0.1832595714594046,0.028361600344907856,0.07853981633974483,-8.65,4.29,0.62,26.0,9.5,-35.5,1746516862.2772105
360,0.26398104936414235,-0.037088246604879506,0.08944812416470939,-8.61,4.19,0.72,26.75,10.0625,-34.1875,1746516862.2971296
361,0.2999784651865254,-0.06981317007977318,0.06435901616729091,-8.540000000000001,4.3,0.6,26.75,10.0625,-34.1875,1746516862.317112
362,0.24870941840919197,-0.06872233929727672,0.0272707695624114,-8.38,4.3500000000000005,0.48,25.375,10.0625,-33.375,1746516862.3374345
363,0.16035212502697901,-0.07417649320975901,-0.07308566242726255,-8.69,4.36,0.45,25.375,10.0625,-33.375,1746516862.357076
364,0.11780972450961724,-0.013089969389957472,-0.07308566242726255,-8.8,4.42,0.6,25.375,10.0625,-33.375,1746516862.3771524
365,0.13744467859455345,0.06763150851478027,-0.018544123302439753,-8.69,4.38,0.71,26.375,8.25,-35.5,1746516862.3973608
366,0.1636246173744684,0.08835729338221293,0.002181661564992912,-8.51,4.53,0.53,26.375,8.25,-35.5,1746516862.4174106
367,0.19962203319685143,0.06544984694978735,0.022907446432425576,-8.47,4.18,0.58,26.375,9.75,-35.0625,1746516862.4378839
368,0.21380283336930536,0.05345070834232634,0.006544984694978736,-8.66,4.58,0.38,26.375,9.75,-35.0625,1746516862.4575417
369,0.2203478180642841,0.09053895494720585,0.04799655442984406,-8.51,4.3,0.36,26.375,9.75,-35.0625,1746516862.4775453
370,0.15162547876700738,0.039269908169872414,0.03381575425739013,-8.290000000000001,4.18,0.36,25.6875,9.5,-32.5625,1746516862.4977283
371,0.09053895494720585,-0.0545415391248228,-0.04036073895236887,-8.36,4.13,0.36,25.6875,9.5,-32.5625,1746516862.5195727
372,0.08944812416470939,-0.030543261909900768,-0.04908738521234052,-8.41,4.2700000000000005,0.56,26.0,8.0,-35.5,1746516862.538135
373,0.16798794050445423,0.10471975511965978,-0.039269908169872414,-8.47,4.3100000000000005,0.55,26.0,8.0,-35.5,1746516862.5579054
374,0.20943951023931956,0.210530341021816,-0.008726646259971648,-8.540000000000001,4.2,0.35000000000000003,26.0,8.0,-35.5,1746516862.577902
375,0.1712604328519436,0.17016960206944712,-0.01090830782496456,-8.38,4.11,0.41000000000000003,26.75,10.5,-34.6875,1746516862.5981164
376,0.10471975511965978,0.05126904677733343,-0.07308566242726255,-8.8,4.14,0.12,26.75,10.5,-34.6875,1746516862.619643
377,0.1090830782496456,0.022907446432425576,0.04799655442984406,-8.73,4.3500000000000005,0.38,25.6875,8.0,-33.375,1746516862.6382601
378,0.11017390903214205,0.03381575425739013,0.09708393964218458,-8.61,4.4,0.35000000000000003,25.6875,8.0,-33.375,1746516862.6588283
379,0.09817477042468103,0.0818123086872342,0.0916297857297023,-8.26,4.42,0.3,25.6875,8.0,-33.375,1746516862.6783023
380,0.08290313946973066,0.11344640137963143,0.002181661564992912,-8.25,4.38,0.15,27.875,8.0,-34.1875,1746516862.70131
381,0.06326818538479445,0.12544553998709243,-0.06435901616729091,-8.63,4.29,0.02,27.875,8.0,-34.1875,1746516862.7213824
382,0.020725784867432664,0.1461713248545251,-0.04581489286485115,-8.74,4.43,0.13,26.0,8.0,-34.1875,1746516862.7390618
383,-0.02945243112740431,0.14508049407202864,0.055632369907319255,-8.72,4.26,0.12,26.0,8.0,-34.1875,1746516862.7608356
384,-0.06654067773228381,0.09599310885968812,0.09708393964218458,-8.32,4.2,0.23,26.0,8.0,-34.1875,1746516862.778668
385,-0.04908738521234052,0.026179938779914945,0.04799655442984406,-8.25,4.26,0.18,25.6875,7.5625,-32.5625,1746516862.8021648
386,-0.003272492347489368,0.018544123302439753,-0.001090830782496456,-8.540000000000001,4.3,0.07,25.6875,7.5625,-32.5625,1746516862.822443
387,0.026179938779914945,0.05126904677733343,0.001090830782496456,-8.77,4.33,0.09,29.375,7.1875,-34.6875,1746516862.839645
388,0.015271630954950384,0.10362892433716332,0.0545415391248228,-8.8,4.33,0.15,29.375,7.1875,-34.6875,1746516862.8618627
389,-0.02181661564992912,0.10362892433716332,0.10144726277217041,-8.64,4.24,0.15,29.375,7.1875,-34.6875,1746516862.8790483
390,-0.03490658503988659,0.061086523819801536,0.11562806294462433,-8.39,4.08,0.07,26.375,8.25,-33.375,1746516862.9022348
391,-0.004363323129985824,0.004363323129985824,0.09599310885968812,-8.4,4.2,0.19,26.375,8.25,-33.375,1746516862.9229925
392,0.06654067773228381,-0.019634954084936207,0.07417649320975901,-8.43,4.25,0.23,26.375,7.5625,-31.6875,1746516862.9393373
393,0.1090830782496456,-0.016362461737446838,0.0818123086872342,-8.71,4.36,0.02,26.375,7.5625,-31.6875,1746516862.9617758
394,0.09490227807719166,0.020725784867432664,0.15926129424448257,-8.43,4.47,0.17,26.375,7.5625,-31.6875,1746516862.9793863
395,0.08399397025222712,0.030543261909900768,0.10362892433716332,-8.07,4.39,-0.06,28.5625,8.0,-34.1875,1746516863.0025554
396,0.08399397025222712,0.04690572364734761,-0.014180800172453928,-8.120000000000001,4.34,-0.04,28.5625,8.0,-34.1875,1746516863.0228777
397,0.09599310885968812,0.06763150851478027,-0.10035643198967395,-8.47,4.3500000000000005,0.0,26.75,7.1875,-32.5625,1746516863.0411446
398,0.08944812416470939,0.05672320068981571,-0.09599310885968812,-8.84,4.47,0.09,26.75,7.1875,-32.5625,1746516863.0626986
399,0.07963064712224129,0.07090400086226964,0.06872233929727672,-8.97,4.48,-0.15,26.75,7.1875,-32.5625,1746516863.0800269
400,0.05781403147231216,0.02945243112740431,0.20180369476184434,-8.4,4.41,-0.09,27.5,7.5625,-32.1875,1746516863.1027305
401,0.039269908169872414,-0.03490658503988659,0.1538071403320003,-8.13,4.42,-0.02,27.5,7.5625,-32.1875,1746516863.1229146
402,0.0545415391248228,-0.039269908169872414,0.037088246604879506,-8.22,4.49,0.0,29.0,6.5,-35.0625,1746516863.1409588
403,0.06326818538479445,0.008726646259971648,-0.032724923474893676,-8.38,4.48,-0.12,29.0,6.5,-35.0625,1746516863.1627119
404,0.038179077387375956,0.08072147790473774,-0.008726646259971648,-8.61,4.5200000000000005,-0.09,29.0,6.5,-35.0625,1746516863.1801496
405,-0.004363323129985824,0.09381144729469522,0.06872233929727672,-8.55,4.53,-0.02,26.375,7.1875,-31.6875,1746516863.202747
406,-0.011999138607461015,0.03599741582238305,0.12326387842209953,-8.4,4.49,0.02,26.375,7.1875,-31.6875,1746516863.2228365
407,0.02181661564992912,-0.006544984694978736,0.12435470920459599,-8.31,4.51,-0.01,27.5,6.5,-32.1875,1746516863.2406776
408,0.04036073895236887,-0.02945243112740431,0.08726646259971647,-8.33,4.5200000000000005,-0.09,27.5,6.5,-32.1875,1746516863.262677
409,0.03490658503988659,0.007635815477475192,0.0719948316447661,-8.43,4.54,-0.11,27.5,6.5,-32.1875,1746516863.2806647
410,0.026179938779914945,0.10471975511965978,0.1341721862470641,-8.45,4.5600000000000005,-0.11,26.75,5.75,-33.0,1746516863.3025768
411,0.018544123302439753,0.17235126363444003,0.18435040224190105,-8.35,4.62,0.0,26.75,5.75,-33.0,1746516863.3230584
412,0.013089969389957472,0.18871372537188688,0.19744037163185854,-8.2,4.59,0.02,26.375,6.0625,-32.1875,1746516863.341359
413,-0.007635815477475192,0.12544553998709243,0.10799224746714914,-7.99,4.55,-0.29,26.375,6.0625,-32.1875,1746516863.3628776
414,-0.06217735460229799,0.04254240051736178,0.06544984694978735,-8.25,4.5200000000000005,-0.43,26.375,6.0625,-32.1875,1746516863.3809903
415,-0.08726646259971647,0.020725784867432664,0.1189005552921137,-8.370000000000001,4.57,-0.12,27.875,5.75,-31.6875,1746516863.4028258
416,-0.05781403147231216,0.05999569303730508,0.13744467859455345,-8.28,4.78,-0.07,27.875,5.75,-31.6875,1746516863.4229574
417,-0.019634954084936207,0.10581058590215622,0.16907877128695067,-8.27,4.76,-0.17,26.75,5.75,-33.875,1746516863.4415445
418,-0.0272707695624114,0.038179077387375956,0.17453292519943295,-7.99,4.73,-0.25,26.75,5.75,-33.875,1746516863.462785
419,-0.04690572364734761,-0.07744898555724837,0.08617563181722002,-8.1,4.73,-0.26,26.375,4.25,-31.6875,1746516863.4815269
420,-0.08617563181722002,-0.06544984694978735,0.05781403147231216,-8.25,5.07,-0.24,26.375,4.25,-31.6875,1746516863.502953
421,-0.10471975511965978,0.07635815477475191,0.10690141668465268,-7.88,4.95,-0.13,26.375,4.25,-31.6875,1746516863.5234864
422,-0.0818123086872342,0.1636246173744684,0.06435901616729091,-7.92,4.8500000000000005,-0.13,27.875,5.0,-32.1875,1746516863.5417652
423,-0.08726646259971647,0.15162547876700738,-0.06435901616729091,-7.86,4.73,-0.25,27.875,5.0,-32.1875,1746516863.562842
424,-0.1189005552921137,0.12217304763960307,-0.17671458676442586,-8.24,4.67,-0.3,26.75,4.6875,-33.0,1746516863.5818617
425,-0.11780972450961724,0.1636246173744684,-0.21271200258680892,-8.34,4.76,-0.15,26.75,4.6875,-33.0,1746516863.6029003
426,-0.0818123086872342,0.34033920413889424,-0.11780972450961724,-8.03,4.51,-0.16,26.75,4.6875,-33.0,1746516863.6234696
427,-0.09926560120717749,0.39924406639370286,-0.08617563181722002,-8.0,4.3500000000000005,-0.29,27.875,5.0,-31.375,1746516863.6425319
428,-0.08072147790473774,0.2879793265790644,-0.15489797111449674,-8.06,4.57,-0.26,27.875,5.0,-31.375,1746516863.6628747
429,-0.06217735460229799,0.16035212502697901,-0.2694352032766246,-8.41,4.74,-0.37,29.375,6.5,-31.375,1746516863.6822057
430,-0.05890486225480862,0.1538071403320003,-0.29888763440402893,-8.63,4.68,-0.55,29.375,6.5,-31.375,1746516863.7029536
431,-0.04581489286485115,0.16798794050445423,-0.23452861823673804,-8.51,4.6000000000000005,-0.36,29.375,6.5,-31.375,1746516863.7232738
432,-0.031634092692397225,0.1712604328519436,-0.22580197197676638,-8.21,4.46,-0.49,28.1875,6.0625,-30.5,1746516863.74252
433,0.019634954084936207,0.14726215563702155,-0.26725354171163174,-8.83,4.49,-0.64,28.1875,6.0625,-30.5,1746516863.7628844
434,0.001090830782496456,0.13962634015954636,-0.210530341021816,-8.91,4.57,-0.55,29.375,6.875,-30.5,1746516863.7826252
435,-0.0818123086872342,0.09053895494720585,-0.03599741582238305,-8.67,4.5,-0.44,29.375,6.875,-30.5,1746516863.8031824
436,-0.1308996938995747,0.017453292519943295,0.002181661564992912,-8.61,4.44,-0.53,29.375,6.875,-30.5,1746516863.8232136
437,-0.15817046346198613,-0.04363323129985824,0.0,-8.58,4.54,-0.66,29.0,6.875,-30.0625,1746516863.8431594
438,-0.15926129424448257,-0.03381575425739013,0.019634954084936207,-8.65,4.71,-0.73,29.0,6.875,-30.0625,1746516863.8629937
439,-0.1712604328519436,-0.001090830782496456,0.04254240051736178,-8.57,4.7,-0.52,29.0,6.5,-30.875,1746516863.8829367
440,-0.19634954084936207,0.025089107997418487,0.032724923474893676,-8.75,4.72,-0.46,29.0,6.5,-30.875,1746516863.9030704
441,-0.1810779098944117,0.10035643198967395,0.09817477042468103,-8.49,4.64,-0.48,29.0,6.5,-30.875,1746516863.9231644
442,-0.19962203319685143,0.12326387842209953,0.07744898555724837,-8.38,4.48,-0.32,29.6875,8.25,-30.0625,1746516863.9437103
443,-0.2748893571891069,0.08072147790473774,0.050178215994836975,-8.46,4.44,-0.32,29.6875,8.25,-30.0625,1746516863.963142
444,-0.3076142806640006,0.04799655442984406,0.05126904677733343,-8.43,4.42,-0.52,29.375,7.5625,-30.5,1746516863.983198
445,-0.28361600344907856,0.06435901616729091,0.08072147790473774,-8.24,4.4,-0.59,29.375,7.5625,-30.5,1746516864.0040603
446,-0.24434609527920614,0.0916297857297023,0.037088246604879506,-7.87,4.29,-0.33,29.375,7.5625,-30.5,1746516864.0234401
447,-0.16798794050445423,0.14180800172453928,-0.05345070834232634,-8.38,4.3500000000000005,-0.32,29.0,6.875,-29.6875,1746516864.0447729
448,-0.04036073895236887,0.24216443371421323,0.04908738521234052,-8.4,4.3,-0.26,29.0,6.875,-29.6875,1746516864.064522
449,0.04254240051736178,0.23234695667174513,0.1189005552921137,-8.49,4.34,-0.28,30.375,9.5,-31.6875,1746516864.0835617
450,0.026179938779914945,0.19525871006686563,0.16471544815696484,-8.27,4.41,-0.54,30.375,9.5,-31.6875,1746516864.104065
451,0.019634954084936207,0.13744467859455345,0.13744467859455345,-7.94,4.45,-0.5,30.375,9.5,-31.6875,1746516864.1239696
452,0.02945243112740431,0.1189005552921137,0.00545415391248228,-8.2,4.62,-0.5700000000000001,29.0,8.0,-30.5,1746516864.1456423
453,0.05890486225480862,0.1734420944169365,0.009817477042468103,-8.45,4.64,-0.66,29.0,8.0,-30.5,1746516864.1655295
454,0.11671889372712078,0.1538071403320003,0.06435901616729091,-8.41,4.62,-0.63,30.0625,8.0,-29.6875,1746516864.1839406
455,0.09708393964218458,0.07963064712224129,0.06981317007977318,-8.14,4.6000000000000005,-0.62,30.0625,8.0,-29.6875,1746516864.2063878
456,0.037088246604879506,0.028361600344907856,-0.020725784867432664,-8.33,4.58,-0.72,30.0625,8.0,-29.6875,1746516864.2242153
457,0.0,0.06872233929727672,-0.009817477042468103,-8.74,4.92,-0.5,30.75,8.0,-30.5,1746516864.2459323
458,0.006544984694978736,0.11562806294462433,0.10581058590215622,-8.64,4.75,-0.8300000000000001,30.75,8.0,-30.5,1746516864.2669249
459,-0.02181661564992912,0.08617563181722002,0.18980455615438332,-8.43,4.8100000000000005,-0.75,29.375,8.0,-29.25,1746516864.2843258
460,-0.06326818538479445,0.018544123302439753,0.18871372537188688,-8.07,4.71,-0.79,29.375,8.0,-29.25,1746516864.3078406
461,-0.08072147790473774,-0.02181661564992912,0.13962634015954636,-8.1,4.72,-0.76,29.375,8.0,-29.25,1746516864.324635
462,-0.06981317007977318,-0.016362461737446838,0.1265363707695889,-8.19,4.75,-0.73,30.0625,6.0625,-29.25,1746516864.3481011
463,-0.013089969389957472,0.031634092692397225,0.12326387842209953,-8.22,4.82,-0.64,30.0625,6.0625,-29.25,1746516864.3671103
464,0.00545415391248228,0.1341721862470641,0.10362892433716332,-7.99,4.82,-0.61,31.1875,8.6875,-30.0625,1746516864.3847787
465,-0.016362461737446838,0.15162547876700738,0.02181661564992912,-8.08,4.7,-0.81,31.1875,8.6875,-30.0625,1746516864.4077926
466,-0.044724062082354694,0.05781403147231216,-0.011999138607461015,-8.23,4.82,-0.74,31.1875,8.6875,-30.0625,1746516864.4249923
467,-0.04036073895236887,-0.02945243112740431,-0.02399827721492203,-8.26,4.82,-0.74,29.375,6.875,-28.875,1746516864.44698
468,-0.017453292519943295,-0.038179077387375956,-0.011999138607461015,-8.24,4.8500000000000005,-0.6900000000000001,29.375,6.875,-28.875,1746516864.4680972
469,0.003272492347489368,0.011999138607461015,0.002181661564992912,-8.31,4.8500000000000005,-0.78,30.375,6.875,-28.375,1746516864.4879231
470,0.020725784867432664,0.05672320068981571,0.016362461737446838,-8.31,4.79,-0.8,30.375,6.875,-28.375,1746516864.5081468
471,0.011999138607461015,0.05126904677733343,0.02181661564992912,-8.4,4.8100000000000005,-0.79,30.375,6.875,-28.375,1746516864.5253482
472,-0.0272707695624114,0.025089107997418487,0.04145156973486533,-8.42,4.83,-0.79,30.375,8.25,-30.5,1746516864.547673
473,-0.0719948316447661,-0.026179938779914945,0.044724062082354694,-8.21,4.84,-0.77,30.375,8.25,-30.5,1746516864.5683954
474,-0.10253809355466686,-0.0719948316447661,0.028361600344907856,-8.08,4.76,-0.78,29.6875,6.5,-28.875,1746516864.5854461
475,-0.06981317007977318,-0.03381575425739013,0.017453292519943295,-7.930000000000001,4.87,-0.73,29.6875,6.5,-28.875,1746516864.6085927
476,0.014180800172453928,0.04254240051736178,-0.04254240051736178,-7.99,4.9,-0.66,29.6875,6.5,-28.875,1746516864.6259813
477,0.04036073895236887,0.06763150851478027,-0.10471975511965978,-8.2,4.9,-0.72,31.1875,6.5,-28.875,1746516864.647497
478,0.02181661564992912,0.0818123086872342,-0.09490227807719166,-8.23,4.76,-0.8200000000000001,31.1875,6.5,-28.875,1746516864.6686902
479,0.002181661564992912,0.03599741582238305,-0.09490227807719166,-8.19,4.68,-0.8,29.6875,7.5625,-29.6875,1746516864.685825
480,-0.013089969389957472,-0.008726646259971648,-0.12544553998709243,-8.41,4.8,-0.87,29.6875,7.5625,-29.6875,1746516864.7086115
481,-0.037088246604879506,0.044724062082354694,-0.06654067773228381,-8.88,4.99,-0.6900000000000001,29.6875,7.5625,-29.6875,1746516864.726084
482,-0.04799655442984406,0.10799224746714914,0.12544553998709243,-8.39,4.84,-0.8,30.0625,6.0625,-28.375,1746516864.7486694
483,-0.04254240051736178,0.016362461737446838,0.20398535632683726,-7.87,4.7,-0.88,30.0625,6.0625,-28.375,1746516864.7688346
484,-0.10471975511965978,-0.11453723216212788,0.06763150851478027,-7.5600000000000005,4.69,-0.8,31.5,8.25,-29.6875,1746516864.786204
485,-0.10362892433716332,-0.11344640137963143,-0.12762720155208535,-8.13,4.79,-0.59,31.5,8.25,-29.6875,1746516864.808633
486,-0.0916297857297023,0.07417649320975901,-0.1341721862470641,-8.26,4.7700000000000005,-0.66,31.5,8.25,-29.6875,1746516864.8266582
487,-0.09272061651219876,0.16907877128695067,-0.06654067773228381,-8.34,4.89,-0.54,29.6875,8.6875,-28.0,1746516864.848884
488,-0.03490658503988659,0.17016960206944712,0.050178215994836975,-7.9,4.72,-0.89,29.6875,8.6875,-28.0,1746516864.8688686
489,-0.016362461737446838,0.07963064712224129,0.04908738521234052,-7.69,4.69,-1.02,31.1875,7.1875,-29.6875,1746516864.8869548
490,-0.07635815477475191,-0.00545415391248228,-0.05890486225480862,-8.38,4.8100000000000005,-0.9,31.1875,7.1875,-29.6875,1746516864.9087849
491,-0.09926560120717749,0.08290313946973066,-0.03599741582238305,-8.39,4.86,-0.67,30.75,8.6875,-27.5625,1746516864.9270275
492,-0.04036073895236887,0.16144295580947549,0.039269908169872414,-8.43,4.86,-0.73,30.75,8.6875,-27.5625,1746516864.9487236
493,-0.03490658503988659,0.1439896632895322,0.08835729338221293,-8.3,4.89,-0.88,30.75,8.6875,-27.5625,1746516864.9688401
494,-0.06435901616729091,0.09272061651219876,0.1439896632895322,-8.120000000000001,4.8100000000000005,-0.93,30.0625,8.0,-28.375,1746516864.9871747
495,-0.06326818538479445,0.02399827721492203,0.14508049407202864,-8.620000000000001,4.86,-0.81,30.0625,8.0,-28.375,1746516865.0087523
496,-0.02181661564992912,0.01090830782496456,0.1930770485018727,-8.76,4.88,-0.8200000000000001,32.25,6.5,-28.375,1746516865.0274034
497,0.025089107997418487,0.06763150851478027,0.33815754257390135,-8.39,4.97,-0.68,32.25,6.5,-28.375,1746516865.0488029
498,-0.017453292519943295,0.11344640137963143,0.4166973589136462,-7.98,4.9,-0.71,32.25,6.5,-28.375,1746516865.0689843
499,-0.07308566242726255,0.10253809355466686,0.38288160465625604,-7.640000000000001,4.79,-0.8,30.75,8.6875,-28.375,1746516865.0876231
500,-0.06326818538479445,0.02181661564992912,0.24216443371421323,-7.7,4.8500000000000005,-0.91,30.75,8.6875,-28.375,1746516865.1088085
501,0.002181661564992912,-0.02945243112740431,0.1538071403320003,-7.95,5.2,-0.67,30.375,6.875,-27.1875,1746516865.1282032
502,0.07963064712224129,0.009817477042468103,0.15489797111449674,-8.01,5.17,-0.87,30.375,6.875,-27.1875,1746516865.1487997
503,0.10253809355466686,0.06872233929727672,0.17016960206944712,-7.91,5.15,-0.9500000000000001,30.375,6.875,-27.1875,1746516865.168951
504,0.07744898555724837,0.09053895494720585,0.19962203319685143,-7.67,5.12,-0.93,31.875,5.75,-28.875,1746516865.1879158
505,0.06326818538479445,0.020725784867432664,0.11671889372712078,-7.44,5.03,-1.01,31.875,5.75,-28.875,1746516865.2088115
506,0.038179077387375956,-0.030543261909900768,-0.016362461737446838,-8.09,5.37,-0.88,31.5,7.1875,-28.875,1746516865.2284606
507,0.11453723216212788,0.11780972450961724,0.018544123302439753,-8.0,5.42,-0.81,31.5,7.1875,-28.875,1746516865.248831
508,0.15817046346198613,0.1461713248545251,0.018544123302439753,-7.72,5.11,-1.03,31.5,7.1875,-28.875,1746516865.2689848
509,0.14835298641951802,0.1189005552921137,-0.00545415391248228,-7.63,4.99,-1.05,30.375,6.0625,-26.75,1746516865.2883704
510,0.10471975511965978,-0.019634954084936207,-0.09926560120717749,-8.16,5.22,-1.02,30.375,6.0625,-26.75,1746516865.3088562
511,0.10690141668465268,-0.006544984694978736,-0.06654067773228381,-8.31,5.45,-1.01,32.6875,4.6875,-27.5625,1746516865.3286443
512,0.07526732399225546,0.04254240051736178,0.08617563181722002,-8.22,5.38,-1.1400000000000001,32.6875,4.6875,-27.5625,1746516865.348892
513,0.04363323129985824,-0.009817477042468103,0.11671889372712078,-7.86,5.22,-1.07,32.6875,4.6875,-27.5625,1746516865.3690395
514,0.028361600344907856,-0.07744898555724837,0.0818123086872342,-7.92,5.19,-1.1300000000000001,30.75,5.75,-27.1875,1746516865.3886843
515,0.026179938779914945,-0.06435901616729091,0.08290313946973066,-7.82,5.3100000000000005,-1.09,30.75,5.75,-27.1875,1746516865.4089465
516,0.02399827721492203,-0.028361600344907856,0.07417649320975901,-7.9,5.28,-1.03,30.375,5.0,-28.0,1746516865.4288306
517,0.009817477042468103,-0.02399827721492203,0.09708393964218458,-7.930000000000001,5.28,-1.02,30.375,5.0,-28.0,1746516865.4488993
518,0.017453292519943295,-0.004363323129985824,0.12435470920459599,-7.7,5.33,-1.01,30.375,5.0,-28.0,1746516865.4689622
519,0.04690572364734761,0.08617563181722002,0.11235557059713497,-7.46,5.39,-1.01,32.25,5.375,-29.6875,1746516865.4888728
520,0.07635815477475191,0.12544553998709243,0.04908738521234052,-7.5600000000000005,5.22,-1.2,32.25,5.375,-29.6875,1746516865.5094144
521,0.06654067773228381,0.0818123086872342,-0.00545415391248228,-7.53,5.22,-1.11,29.6875,5.75,-27.1875,1746516865.529146
522,0.06763150851478027,0.037088246604879506,-0.06981317007977318,-7.75,5.28,-1.04,29.6875,5.75,-27.1875,1746516865.549395
523,0.07635815477475191,0.07526732399225546,-0.07853981633974483,-8.02,5.3500000000000005,-1.1300000000000001,29.6875,5.75,-27.1875,1746516865.5691848
524,0.08072147790473774,0.17016960206944712,-0.03599741582238305,-7.84,5.42,-1.22,30.75,3.875,-26.375,1746516865.5899858
525,0.06763150851478027,0.1810779098944117,-0.030543261909900768,-7.84,5.34,-1.24,30.75,3.875,-26.375,1746516865.6094418
526,0.04799655442984406,0.12871803233458182,-0.05781403147231216,-7.96,5.2,-1.27,32.6875,3.875,-28.875,1746516865.6294937
527,0.025089107997418487,0.05345070834232634,-0.05672320068981571,-7.94,5.3,-1.23,32.6875,3.875,-28.875,1746516865.6496818
528,0.025089107997418487,0.007635815477475192,-0.07090400086226964,-8.03,5.29,-1.3,32.6875,3.875,-28.875,1746516865.6695857
529,0.003272492347489368,0.028361600344907856,-0.03490658503988659,-8.24,5.43,-1.2,29.375,5.0,-25.5,1746516865.6896253
530,0.004363323129985824,0.08617563181722002,0.04145156973486533,-8.040000000000001,5.42,-1.3,29.375,5.0,-25.5,1746516865.7107337
531,-0.0272707695624114,0.050178215994836975,0.04690572364734761,-7.74,5.29,-1.3900000000000001,31.875,5.375,-26.375,1746516865.7302184
532,-0.05672320068981571,-0.025089107997418487,0.00545415391248228,-7.8500000000000005,5.29,-1.25,31.875,5.375,-26.375,1746516865.7516248
533,-0.04799655442984406,-0.06435901616729091,0.008726646259971648,-7.8500000000000005,5.32,-1.09,31.875,5.375,-26.375,1746516865.7699316
534,-0.0272707695624114,-0.04799655442984406,0.030543261909900768,-8.25,5.28,-1.57,32.6875,4.6875,-29.25,1746516865.790598
535,-0.05345070834232634,0.0272707695624114,0.15926129424448257,-8.09,5.41,-1.3900000000000001,32.6875,4.6875,-29.25,1746516865.8128097
536,-0.08399397025222712,0.016362461737446838,0.2007128639793479,-7.51,5.33,-1.1500000000000001,29.0,5.0,-26.375,1746516865.8302598
537,-0.06763150851478027,-0.05999569303730508,0.0818123086872342,-7.25,5.1000000000000005,-1.1,29.0,5.0,-26.375,1746516865.853081
538,-0.04363323129985824,-0.08508480103472356,-0.04908738521234052,-7.62,5.16,-1.24,29.0,5.0,-26.375,1746516865.8703125
539,-0.001090830782496456,-0.018544123302439753,-0.04581489286485115,-8.25,5.4,-1.24,31.1875,5.0,-26.75,1746516865.8938277
540,0.00545415391248228,0.10690141668465268,0.12980886311707826,-8.31,5.62,-1.27,31.1875,5.0,-26.75,1746516865.9139533
541,-0.07526732399225546,0.06326818538479445,0.27052603405912107,-7.91,5.54,-1.26,31.1875,5.0,-27.1875,1746516865.9306505
542,-0.11999138607461016,-0.08399397025222712,0.2552544031041707,-7.43,5.29,-1.18,31.1875,5.0,-27.1875,1746516865.9536438
543,-0.1189005552921137,-0.15489797111449674,0.1734420944169365,-7.04,5.29,-1.1,31.1875,5.0,-27.1875,1746516865.9707367
544,-0.06326818538479445,-0.10035643198967395,0.028361600344907856,-7.44,5.33,-1.1300000000000001,30.0625,5.0,-25.875,1746516865.994117
545,0.028361600344907856,0.14944381720201447,0.039269908169872414,-7.55,5.46,-1.1,30.0625,5.0,-25.875,1746516866.0144694
546,0.09053895494720585,0.29670597283903605,0.04690572364734761,-7.5200000000000005,5.39,-1.16,31.875,4.25,-26.375,1746516866.0310142
547,0.08072147790473774,0.24216443371421323,-0.009817477042468103,-7.37,5.28,-1.0,31.875,4.25,-26.375,1746516866.0538774
548,0.028361600344907856,0.09053895494720585,-0.09272061651219876,-7.88,5.3100000000000005,-1.43,31.875,4.25,-26.375,1746516866.0711071
549,-0.016362461737446838,-0.02399827721492203,-0.016362461737446838,-8.120000000000001,5.61,-1.43,29.6875,3.5625,-29.25,1746516866.0943239
550,0.002181661564992912,-0.02181661564992912,0.09926560120717749,-7.74,5.69,-1.22,29.6875,3.5625,-29.25,1746516866.1150014
551,0.04036073895236887,0.05345070834232634,0.12544553998709243,-7.49,5.55,-1.25,30.375,4.6875,-25.875,1746516866.1314104
552,0.013089969389957472,0.061086523819801536,0.05781403147231216,-7.24,5.33,-1.23,30.375,4.6875,-25.875,1746516866.1545117
553,0.002181661564992912,-0.022907446432425576,-0.08508480103472356,-7.63,5.34,-1.32,30.375,4.6875,-25.875,1746516866.1715124
554,0.025089107997418487,-0.039269908169872414,-0.09053895494720585,-8.28,5.67,-1.35,31.5,4.25,-27.1875,1746516866.1943932
555,0.02945243112740431,0.05345070834232634,0.0545415391248228,-8.11,5.75,-1.35,31.5,4.25,-27.1875,1746516866.2150064
556,-0.07526732399225546,-0.003272492347489368,0.11671889372712078,-7.67,5.62,-1.2,30.0625,3.1875,-26.375,1746516866.2318065
557,-0.15271630954950383,-0.12544553998709243,0.05781403147231216,-7.51,5.55,-1.2,30.0625,3.1875,-26.375,1746516866.2544663
558,-0.12326387842209953,-0.1090830782496456,-0.007635815477475192,-7.44,5.64,-1.27,30.0625,3.1875,-26.375,1746516866.2718635
559,-0.05999569303730508,0.05781403147231216,-0.04581489286485115,-7.74,5.5600000000000005,-1.34,31.1875,3.875,-25.875,1746516866.2944527
560,-0.026179938779914945,0.18762289458939044,-0.018544123302439753,-7.72,5.41,-1.21,31.1875,3.875,-25.875,1746516866.315492
561,-0.030543261909900768,0.1636246173744684,-0.004363323129985824,-7.82,5.32,-1.25,31.5,3.875,-27.5625,1746516866.333557
562,-0.06217735460229799,0.04254240051736178,0.018544123302439753,-7.79,5.42,-1.22,31.5,3.875,-27.5625,1746516866.3550308
563,-0.07853981633974483,-0.07526732399225546,0.011999138607461015,-7.78,5.5,-1.23,30.75,2.375,-27.1875,1746516866.3735888
564,-0.06435901616729091,-0.0545415391248228,0.06654067773228381,-7.53,5.63,-1.31,30.75,2.375,-27.1875,1746516866.394994
565,-0.015271630954950384,0.02181661564992912,0.11126473981463851,-7.29,5.48,-1.23,30.75,2.375,-27.1875,1746516866.415519
566,0.04254240051736178,0.05781403147231216,0.030543261909900768,-7.23,5.3,-1.1500000000000001,33.0,4.6875,-25.5,1746516866.4343688
567,0.050178215994836975,0.05999569303730508,-0.07635815477475191,-7.5,5.41,-1.22,33.0,4.6875,-25.5,1746516866.4550583
568,0.016362461737446838,0.05126904677733343,-0.11017390903214205,-7.930000000000001,5.53,-1.33,31.875,4.25,-27.1875,1746516866.473989
569,0.009817477042468103,0.05672320068981571,-0.008726646259971648,-7.82,5.76,-1.41,31.875,4.25,-27.1875,1746516866.4950256
570,0.06872233929727672,0.039269908169872414,0.0719948316447661,-7.57,5.6000000000000005,-1.32,31.875,4.25,-27.1875,1746516866.5176482
571,0.07308566242726255,0.061086523819801536,0.044724062082354694,-7.34,5.42,-1.27,30.375,3.5625,-25.875,1746516866.54099
572,0.055632369907319255,0.06763150851478027,-0.038179077387375956,-7.57,5.46,-1.31,30.375,3.5625,-25.875,1746516866.559153
573,0.02399827721492203,0.06763150851478027,-0.05672320068981571,-7.69,5.57,-1.36,32.25,4.25,-26.75,1746516866.5773985
574,0.016362461737446838,0.019634954084936207,-0.0545415391248228,-7.7700000000000005,5.65,-1.3800000000000001,32.25,4.25,-26.75,1746516866.598566
575,0.02181661564992912,0.004363323129985824,-0.017453292519943295,-7.91,5.66,-1.41,32.25,4.25,-26.75,1746516866.618168
576,0.020725784867432664,0.022907446432425576,0.03490658503988659,-7.71,5.55,-1.4000000000000001,31.1875,3.875,-26.375,1746516866.637714
577,0.011999138607461015,0.028361600344907856,0.003272492347489368,-7.71,5.46,-1.3900000000000001,31.1875,3.875,-26.375,1746516866.6594174
578,0.008726646259971648,0.038179077387375956,-0.00545415391248228,-7.75,5.48,-1.24,30.75,2.75,-26.375,1746516866.6777415
579,-0.015271630954950384,-0.019634954084936207,-0.017453292519943295,-7.69,5.39,-1.42,30.75,2.75,-26.375,1746516866.6997378
580,-0.028361600344907856,-0.11344640137963143,-0.02945243112740431,-7.48,5.41,-1.1,30.75,2.75,-26.375,1746516866.718474
581,0.001090830782496456,-0.1538071403320003,-0.07853981633974483,-7.63,5.42,-1.1500000000000001,32.6875,3.875,-26.375,1746516866.7380798
582,0.0545415391248228,-0.04908738521234052,-0.06654067773228381,-7.75,5.34,-1.47,32.6875,3.875,-26.375,1746516866.7614229
583,0.08290313946973066,0.03490658503988659,-0.02945243112740431,-7.73,5.41,-1.57,31.1875,4.6875,-27.5625,1746516866.778089
584,0.08508480103472356,0.016362461737446838,-0.03381575425739013,-7.58,5.5200000000000005,-1.24,31.1875,4.6875,-27.5625,1746516866.8014832
585,0.10581058590215622,-0.050178215994836975,-0.10253809355466686,-7.53,5.5200000000000005,-1.21,31.1875,4.6875,-27.5625,1746516866.8187463
586,0.1407171709420428,-0.0818123086872342,-0.1265363707695889,-7.97,5.5200000000000005,-1.49,31.5,3.5625,-27.1875,1746516866.8409798
587,0.1559888018969932,-0.0719948316447661,-0.044724062082354694,-8.01,5.7,-1.4000000000000001,31.5,3.5625,-27.1875,1746516866.861915
588,0.10144726277217041,-0.08399397025222712,0.022907446432425576,-7.8500000000000005,5.71,-1.46,32.6875,5.0,-26.375,1746516866.8784568
589,0.026179938779914945,-0.09817477042468103,0.04145156973486533,-7.45,5.54,-1.34,32.6875,5.0,-26.375,1746516866.9019477
590,-0.02399827721492203,-0.12762720155208535,-0.04581489286485115,-7.11,5.38,-1.22,32.6875,5.0,-26.375,1746516866.919216
591,0.001090830782496456,-0.136353847812057,-0.15162547876700738,-7.68,5.21,-1.45,30.75,2.75,-27.5625,1746516866.9414263
592,0.07090400086226964,-0.05235987755982989,-0.08399397025222712,-7.930000000000001,5.33,-1.3,30.75,2.75,-27.5625,1746516866.9621665
593,0.11671889372712078,-0.018544123302439753,0.001090830782496456,-7.74,5.36,-1.19,32.6875,2.375,-26.75,1746516866.9788327
594,0.10799224746714914,-0.04690572364734761,-0.006544984694978736,-7.42,5.3100000000000005,-1.21,32.6875,2.375,-26.75,1746516867.0020964
595,0.0818123086872342,-0.10253809355466686,-0.13308135546456762,-7.18,5.24,-1.17,32.6875,2.375,-26.75,1746516867.0196824
596,0.055632369907319255,-0.17780541754692233,-0.30870511144649704,-8.19,5.21,-1.69,32.25,4.25,-27.5625,1746516867.0419712
597,-0.013089969389957472,-0.1407171709420428,-0.1636246173744684,-8.41,5.45,-1.52,32.25,4.25,-27.5625,1746516867.0621967
598,-0.025089107997418487,-0.07417649320975901,0.030543261909900768,-7.73,5.57,-1.24,29.6875,2.75,-27.5625,1746516867.0792158
599,-0.00545415391248228,-0.08835729338221293,0.013089969389957472,-7.57,5.47,-1.34,29.6875,2.75,-27.5625,1746516867.1021335
600,0.006544984694978736,-0.04363323129985824,-0.04799655442984406,-7.74,5.55,-1.43,29.6875,2.75,-27.5625,1746516867.1201088
601,0.014180800172453928,0.031634092692397225,-0.07417649320975901,-7.82,5.53,-1.46,31.5,4.25,-28.0,1746516867.1415112
602,-0.050178215994836975,0.022907446432425576,-0.0545415391248228,-7.82,5.5600000000000005,-1.26,31.5,4.25,-28.0,1746516867.162312
603,-0.13308135546456762,-0.04363323129985824,-0.05999569303730508,-7.84,5.47,-1.29,30.75,5.375,-27.5625,1746516867.179587
604,-0.10253809355466686,-0.10581058590215622,-0.04363323129985824,-7.88,5.25,-1.36,30.75,5.375,-27.5625,1746516867.2020156
605,-0.002181661564992912,-0.09053895494720585,-0.00545415391248228,-7.69,5.23,-1.16,30.75,5.375,-27.5625,1746516867.22057
606,0.07308566242726255,-0.044724062082354694,-0.019634954084936207,-8.040000000000001,5.2,-1.19,30.0625,3.1875,-27.5625,1746516867.2420936
607,0.03490658503988659,-0.0272707695624114,-0.11344640137963143,-8.24,5.25,-1.18,30.0625,3.1875,-27.5625,1746516867.2622538
608,-0.06763150851478027,0.04799655442984406,-0.002181661564992912,-8.02,5.28,-1.11,31.5,5.75,-27.1875,1746516867.2801452
609,-0.12326387842209953,-0.020725784867432664,-0.044724062082354694,-7.7700000000000005,5.0,-1.17,31.5,5.75,-27.1875,1746516867.3022022
610,-0.08726646259971647,-0.12544553998709243,-0.08290313946973066,-7.67,4.95,-1.16,30.0625,5.375,-27.1875,1746516867.3211358
611,-0.018544123302439753,-0.14180800172453928,-0.07417649320975901,-8.0,5.12,-0.91,30.0625,5.375,-27.1875,1746516867.342185
612,0.04799655442984406,0.003272492347489368,0.019634954084936207,-7.74,5.04,-1.03,30.0625,5.375,-27.1875,1746516867.362314
613,0.06763150851478027,0.09272061651219876,0.01090830782496456,-7.640000000000001,5.01,-1.05,30.375,4.6875,-27.1875,1746516867.3805342
614,0.07526732399225546,0.06544984694978735,-0.10362892433716332,-7.69,5.0,-1.04,30.375,4.6875,-27.1875,1746516867.402213
615,0.12217304763960307,0.04799655442984406,-0.20725784867432664,-7.7700000000000005,4.98,-1.07,31.5,4.6875,-28.375,1746516867.4212976
616,0.17671458676442586,0.09272061651219876,-0.23671027980173096,-7.8500000000000005,4.99,-1.27,31.5,4.6875,-28.375,1746516867.4423769
617,0.22143864884678055,0.1439896632895322,-0.21271200258680892,-8.34,5.0,-1.23,31.5,4.6875,-28.375,1746516867.4623628
618,0.2792526803190927,0.1559888018969932,-0.20398535632683726,-8.42,5.0600000000000005,-1.23,30.375,4.25,-26.375,1746516867.48092
619,0.2912518189265537,0.08617563181722002,-0.10690141668465268,-8.34,5.04,-1.31,30.375,4.25,-26.375,1746516867.5021772
620,0.23125612588924865,-0.04254240051736178,-0.017453292519943295,-7.86,4.93,-1.3900000000000001,32.25,4.25,-28.375,1746516867.5220673
621,0.21707532571679475,-0.15162547876700738,-0.07526732399225546,-8.09,5.08,-1.49,32.25,4.25,-28.375,1746516867.5424306
622,0.3010692959690218,-0.08072147790473774,-0.14508049407202864,-8.53,5.16,-1.49,32.25,4.25,-28.375,1746516867.5628178
623,0.29561514205653955,0.12544553998709243,0.004363323129985824,-8.23,5.0,-1.34,31.5,6.0625,-28.0,1746516867.5815792
624,0.19853120241435498,0.07090400086226964,0.05235987755982989,-8.16,4.84,-1.44,31.5,6.0625,-28.0,1746516867.602303
625,0.09599310885968812,-0.1341721862470641,0.0545415391248228,-7.97,4.93,-1.44,30.75,5.375,-26.375,1746516867.6224737
626,0.06981317007977318,-0.2181661564992912,0.06435901616729091,-7.79,5.18,-1.58,30.75,5.375,-26.375,1746516867.642404
627,0.04908738521234052,-0.04363323129985824,0.07963064712224129,-7.95,5.3100000000000005,-1.41,30.75,5.375,-26.375,1746516867.6625612
628,0.03599741582238305,0.05235987755982989,0.11780972450961724,-7.73,5.21,-1.34,31.875,3.5625,-27.5625,1746516867.6820498
629,0.018544123302439753,0.0916297857297023,0.05999569303730508,-7.49,4.99,-1.45,31.875,3.5625,-27.5625,1746516867.7023826
630,-0.01090830782496456,0.0272707695624114,-0.06872233929727672,-7.68,4.89,-1.6600000000000001,30.75,4.6875,-28.0,1746516867.725304
631,-0.032724923474893676,0.03490658503988659,-0.10253809355466686,-8.06,5.1000000000000005,-1.44,30.75,4.6875,-28.0,1746516867.746767
632,0.0,0.0916297857297023,-0.04690572364734761,-8.28,5.15,-1.43,30.75,4.6875,-28.0,1746516867.7651043
633,0.08290313946973066,0.19198621771937624,0.07635815477475191,-8.01,5.15,-1.42,30.75,4.6875,-27.1875,1746516867.7879395
634,0.1265363707695889,0.2454369260617026,0.09599310885968812,-7.67,4.97,-1.51,30.75,4.6875,-27.1875,1746516867.808054
635,0.11671889372712078,0.18435040224190105,-0.04690572364734761,-7.54,4.66,-1.6400000000000001,32.6875,3.875,-27.5625,1746516867.8255217
636,0.11126473981463851,0.11453723216212788,-0.13744467859455345,-8.22,4.73,-1.6500000000000001,32.6875,3.875,-27.5625,1746516867.8479984
637,0.1505346479845109,0.11671889372712078,-0.0272707695624114,-8.17,4.82,-1.44,32.6875,3.875,-27.5625,1746516867.8654523
638,0.1930770485018727,0.07635815477475191,-0.00545415391248228,-7.92,4.84,-1.56,31.1875,4.6875,-26.75,1746516867.8886282
639,0.16471544815696484,-0.004363323129985824,-0.055632369907319255,-7.96,4.88,-1.6400000000000001,31.1875,4.6875,-26.75,1746516867.9084404
640,0.14180800172453928,-0.031634092692397225,-0.06872233929727672,-8.16,5.0200000000000005,-1.78,30.375,3.5625,-26.375,1746516867.9258678
641,0.12762720155208535,-0.013089969389957472,-0.011999138607461015,-8.290000000000001,5.01,-1.82,30.375,3.5625,-26.375,1746516867.9486074
642,0.0916297857297023,-0.008726646259971648,0.0719948316447661,-8.05,5.0200000000000005,-1.6600000000000001,30.375,3.5625,-26.375,1746516867.9658186
643,0.0818123086872342,-0.04908738521234052,0.08617563181722002,-7.87,5.0200000000000005,-1.6600000000000001,32.6875,3.1875,-27.1875,1746516867.9876971
644,0.02181661564992912,-0.07635815477475191,0.06763150851478027,-7.83,5.05,-1.8900000000000001,32.6875,3.1875,-27.1875,1746516868.0092928
645,-0.017453292519943295,-0.06544984694978735,0.07526732399225546,-7.71,5.07,-1.79,30.0625,4.6875,-26.375,1746516868.0262072
646,0.0,-0.05781403147231216,0.0272707695624114,-7.7,4.92,-1.78,30.0625,4.6875,-26.375,1746516868.0488374
647,0.018544123302439753,0.02945243112740431,0.013089969389957472,-7.74,5.0,-1.6,30.0625,4.6875,-26.375,1746516868.0662208
648,0.0272707695624114,0.10144726277217041,-0.020725784867432664,-7.72,4.94,-1.6600000000000001,30.0625,3.5625,-25.0625,1746516868.088074
649,-0.006544984694978736,0.06763150851478027,-0.06981317007977318,-7.91,4.93,-1.83,30.0625,3.5625,-25.0625,1746516868.1094115
650,-0.02945243112740431,-0.0272707695624114,-0.07963064712224129,-8.18,5.0,-1.77,32.6875,2.75,-27.5625,1746516868.1269999
651,-0.018544123302439753,-0.02181661564992912,-0.020725784867432664,-8.1,5.09,-1.76,32.6875,2.75,-27.5625,1746516868.149226
652,0.004363323129985824,0.05345070834232634,0.006544984694978736,-8.05,5.0200000000000005,-1.67,32.6875,2.75,-27.5625,1746516868.1664538
653,0.006544984694978736,0.10362892433716332,0.008726646259971648,-7.94,4.95,-1.67,30.75,3.5625,-26.75,1746516868.188314
654,-0.02399827721492203,0.04363323129985824,-0.032724923474893676,-7.97,4.87,-1.8,30.75,3.5625,-26.75,1746516868.209419
655,-0.055632369907319255,-0.04908738521234052,-0.04363323129985824,-8.26,4.91,-1.8,31.1875,3.875,-25.5,1746516868.2268684
656,-0.061086523819801536,-0.07090400086226964,0.017453292519943295,-8.13,4.99,-1.7,31.1875,3.875,-25.5,1746516868.2492044
657,-0.039269908169872414,-0.04036073895236887,0.05126904677733343,-7.930000000000001,4.99,-1.67,31.1875,3.875,-25.5,1746516868.2671652
658,-0.004363323129985824,-0.004363323129985824,0.017453292519943295,-7.78,4.82,-1.6500000000000001,32.25,3.1875,-28.375,1746516868.2891865
659,0.028361600344907856,0.016362461737446838,-0.038179077387375956,-7.91,4.68,-1.67,32.25,3.1875,-28.375,1746516868.3094797
660,0.032724923474893676,-0.001090830782496456,-0.05999569303730508,-7.94,4.74,-1.6400000000000001,29.6875,3.1875,-25.0625,1746516868.3276827
661,0.0272707695624114,-0.008726646259971648,-0.016362461737446838,-8.1,5.0600000000000005,-1.74,29.6875,3.1875,-25.0625,1746516868.349305
662,0.031634092692397225,-0.00545415391248228,0.018544123302439753,-8.21,5.11,-1.82,29.6875,3.1875,-25.0625,1746516868.3674748
663,0.04799655442984406,0.04581489286485115,0.11017390903214205,-7.74,5.05,-1.86,31.5,3.1875,-26.375,1746516868.3894017
664,0.016362461737446838,0.038179077387375956,0.09708393964218458,-7.54,4.82,-1.73,31.5,3.1875,-26.375,1746516868.4096296
665,-0.019634954084936207,-0.004363323129985824,0.004363323129985824,-7.69,4.7700000000000005,-1.68,31.875,4.25,-27.1875,1746516868.4293778
666,0.001090830782496456,0.025089107997418487,-0.014180800172453928,-7.91,5.01,-1.6300000000000001,31.875,4.25,-27.1875,1746516868.4493384
667,0.04145156973486533,0.11017390903214205,0.016362461737446838,-8.09,5.08,-1.76,31.875,4.25,-27.1875,1746516868.4678748
668,0.04690572364734761,0.19198621771937624,0.1265363707695889,-7.97,5.0,-1.77,30.375,4.25,-26.375,1746516868.4892545
669,0.0,0.15162547876700738,0.2279836335417593,-7.51,4.84,-1.78,30.375,4.25,-26.375,1746516868.5095513
670,-0.02399827721492203,-0.02399827721492203,0.17562375598192942,-7.37,4.8,-1.83,31.875,3.5625,-25.0625,1746516868.5281267
671,-0.026179938779914945,-0.09817477042468103,0.055632369907319255,-7.890000000000001,5.12,-1.82,31.875,3.5625,-25.0625,1746516868.549327
672,0.02181661564992912,0.0,0.07853981633974483,-7.94,5.17,-1.8900000000000001,31.5,2.375,-26.75,1746516868.5681176
673,0.0719948316447661,0.08726646259971647,0.12871803233458182,-7.67,5.1000000000000005,-1.73,31.5,2.375,-26.75,1746516868.5893269
674,0.05999569303730508,0.10035643198967395,0.07853981633974483,-7.8,5.1000000000000005,-1.78,31.5,2.375,-26.75,1746516868.6096714
675,0.02945243112740431,0.07853981633974483,0.018544123302439753,-7.890000000000001,5.22,-1.8,31.5,3.5625,-24.25,1746516868.6286802
676,0.004363323129985824,0.04145156973486533,-0.00545415391248228,-8.17,5.24,-2.13,31.5,3.5625,-24.25,1746516868.6494105
677,-0.07417649320975901,0.016362461737446838,0.05672320068981571,-8.32,5.2700000000000005,-1.92,32.25,3.1875,-25.0625,1746516868.6685467
678,-0.11999138607461016,-0.001090830782496456,0.17016960206944712,-7.92,5.36,-1.81,32.25,3.1875,-25.0625,1746516868.6894367
679,-0.11780972450961724,-0.04799655442984406,0.22580197197676638,-7.49,5.33,-1.82,32.25,3.1875,-25.0625,1746516868.7098925
680,-0.10581058590215622,-0.08944812416470939,0.18653206380689397,-7.59,5.21,-1.9000000000000001,31.875,2.0625,-27.1875,1746516868.7289915
681,-0.10253809355466686,-0.04799655442984406,0.1189005552921137,-7.84,5.32,-1.85,31.875,2.0625,-27.1875,1746516868.7494485
682,-0.08835729338221293,0.01090830782496456,0.1341721862470641,-7.7700000000000005,5.33,-1.69,31.5,3.1875,-24.6875,1746516868.7689426
683,-0.09708393964218458,0.011999138607461015,0.12871803233458182,-7.32,5.22,-1.57,31.5,3.1875,-24.6875,1746516868.789422
684,-0.0916297857297023,0.031634092692397225,-0.00545415391248228,-7.41,4.99,-1.72,31.5,3.1875,-24.6875,1746516868.8097184
685,-0.017453292519943295,0.08508480103472356,-0.06217735460229799,-7.67,5.0200000000000005,-1.6500000000000001,32.25,2.375,-26.375,1746516868.8297267
686,0.050178215994836975,0.09817477042468103,-0.03381575425739013,-8.14,5.28,-1.77,32.25,2.375,-26.375,1746516868.8496902
687,0.04799655442984406,0.10144726277217041,0.09599310885968812,-7.98,5.39,-1.8,31.1875,1.0,-25.875,1746516868.8694565
688,0.008726646259971648,0.014180800172453928,0.11344640137963143,-7.66,5.36,-1.7,31.1875,1.0,-25.875,1746516868.8895578
689,0.0,-0.06544984694978735,0.06872233929727672,-7.5600000000000005,5.18,-1.84,31.1875,1.0,-25.875,1746516868.9099417
690,0.037088246604879506,-0.04690572364734761,0.037088246604879506,-7.73,5.29,-1.9000000000000001,32.25,1.75,-25.5,1746516868.9298673
691,0.07308566242726255,0.03599741582238305,0.06435901616729091,-7.63,5.42,-1.9100000000000001,32.25,1.75,-25.5,1746516868.949559
692,0.05126904677733343,0.09926560120717749,0.06544984694978735,-7.66,5.46,-1.85,32.25,1.75,-25.5,1746516868.9695756
693,0.015271630954950384,0.05890486225480862,0.05999569303730508,-7.59,5.42,-1.86,32.25,1.75,-25.5,1746516868.989545
694,-0.008726646259971648,-0.00545415391248228,0.025089107997418487,-7.390000000000001,5.37,-1.84,32.25,1.75,-25.5,1746516869.009846
695,-0.02945243112740431,-0.03381575425739013,-0.037088246604879506,-7.66,5.3500000000000005,-1.8800000000000001,30.375,0.5625,-24.25,1746516869.0300245
696,-0.003272492347489368,0.004363323129985824,-0.007635815477475192,-7.97,5.44,-1.82,30.375,0.5625,-24.25,1746516869.0506523
697,0.018544123302439753,0.05672320068981571,0.07526732399225546,-7.78,5.45,-1.85,32.25,1.75,-25.875,1746516869.0698843
698,-0.002181661564992912,0.03599741582238305,0.11344640137963143,-7.63,5.38,-1.8900000000000001,32.25,1.75,-25.875,1746516869.0899203
699,-0.04145156973486533,-0.013089969389957472,0.11999138607461016,-7.58,5.39,-1.86,32.25,1.75,-25.875,1746516869.1103127
700,-0.07417649320975901,-0.032724923474893676,0.08944812416470939,-7.48,5.38,-1.82,31.875,1.375,-26.375,1746516869.1306036
701,-0.061086523819801536,-0.020725784867432664,0.05126904677733343,-7.51,5.41,-1.79,31.875,1.375,-26.375,1746516869.1505382
702,-0.015271630954950384,0.020725784867432664,0.04799655442984406,-7.5200000000000005,5.41,-1.82,31.875,1.375,-26.375,1746516869.1703243
703,0.0272707695624114,0.05999569303730508,0.07090400086226964,-7.71,5.48,-1.85,31.875,1.375,-26.375,1746516869.190857
704,0.037088246604879506,0.08944812416470939,0.09381144729469522,-7.53,5.33,-1.85,31.875,1.375,-26.375,1746516869.2106223
705,0.00545415391248228,0.006544984694978736,0.039269908169872414,-7.390000000000001,5.24,-1.82,32.6875,2.0625,-26.75,1746516869.2310565
706,-0.02945243112740431,-0.08399397025222712,-0.022907446432425576,-7.67,5.45,-1.83,32.6875,2.0625,-26.75,1746516869.2562191
707,-0.028361600344907856,-0.037088246604879506,0.02181661564992912,-7.67,5.67,-1.9000000000000001,30.75,0.5625,-26.75,1746516869.2733216
708,0.001090830782496456,0.04363323129985824,0.07963064712224129,-7.69,5.66,-1.9100000000000001,30.75,0.5625,-26.75,1746516869.2962112
709,0.013089969389957472,0.06872233929727672,0.11126473981463851,-7.53,5.5200000000000005,-1.85,30.75,0.5625,-26.75,1746516869.3135152
710,-0.003272492347489368,0.00545415391248228,0.0916297857297023,-7.43,5.44,-1.86,31.5,-0.375,-25.5,1746516869.335572
711,-0.04690572364734761,-0.04690572364734761,0.05999569303730508,-7.36,5.53,-1.82,31.5,-0.375,-25.5,1746516869.356684
712,-0.0719948316447661,-0.028361600344907856,0.015271630954950384,-7.2700000000000005,5.55,-1.83,31.875,2.375,-27.1875,1746516869.3736634
713,-0.044724062082354694,0.038179077387375956,-0.002181661564992912,-7.6000000000000005,5.5600000000000005,-1.83,31.875,2.375,-27.1875,1746516869.3961904
714,0.015271630954950384,0.09381144729469522,0.050178215994836975,-7.55,5.55,-1.82,31.875,2.375,-27.1875,1746516869.414263
715,0.026179938779914945,0.09490227807719166,0.08508480103472356,-7.46,5.5200000000000005,-1.82,30.375,0.5625,-25.0625,1746516869.4359949
716,-0.022907446432425576,0.031634092692397225,0.06654067773228381,-7.48,5.48,-1.92,30.375,0.5625,-25.0625,1746516869.4565473
717,-0.07963064712224129,-0.038179077387375956,0.03599741582238305,-7.57,5.54,-1.85,31.875,1.0,-24.6875,1746516869.474367
718,-0.04581489286485115,-0.019634954084936207,0.08072147790473774,-7.6000000000000005,5.72,-1.87,31.875,1.0,-24.6875,1746516869.4962792
719,-0.014180800172453928,0.061086523819801536,0.13744467859455345,-7.53,5.74,-1.92,33.375,1.375,-25.5,1746516869.5146759
720,-0.014180800172453928,0.0916297857297023,0.1265363707695889,-7.3500000000000005,5.57,-1.93,33.375,1.375,-25.5,1746516869.5364063
721,-0.03490658503988659,0.032724923474893676,0.07090400086226964,-7.41,5.54,-1.83,33.375,1.375,-25.5,1746516869.5567524
722,-0.08726646259971647,-0.044724062082354694,-0.022907446432425576,-7.46,5.68,-1.75,30.75,0.25,-25.0625,1746516869.574771
723,-0.08399397025222712,-0.03599741582238305,-0.05672320068981571,-7.57,5.7,-1.8,30.75,0.25,-25.0625,1746516869.596336
724,-0.02181661564992912,0.02181661564992912,-0.06326818538479445,-7.59,5.63,-1.95,33.375,1.375,-25.5,1746516869.6150575
725,0.032724923474893676,0.03599741582238305,-0.038179077387375956,-8.02,5.67,-1.8800000000000001,33.375,1.375,-25.5,1746516869.6364088
726,0.00545415391248228,-0.004363323129985824,0.07635815477475191,-7.62,5.75,-1.78,33.375,1.375,-25.5,1746516869.6567533
727,-0.06326818538479445,-0.10581058590215622,0.13199052468207118,-7.41,5.68,-1.8,31.1875,1.375,-25.0625,1746516869.6751423
728,-0.04581489286485115,-0.1832595714594046,0.07963064712224129,-7.11,5.45,-1.79,31.1875,1.375,-25.0625,1746516869.6964211
729,0.06544984694978735,-0.12871803233458182,-0.013089969389957472,-7.23,5.4,-1.72,29.375,-0.75,-26.75,1746516869.7153645
730,0.16798794050445423,-0.04690572364734761,-0.03381575425739013,-7.55,5.51,-1.6600000000000001,29.375,-0.75,-26.75,1746516869.7364464
731,0.15926129424448257,-0.018544123302439753,-0.01090830782496456,-7.33,5.47,-1.6600000000000001,29.375,-0.75,-26.75,1746516869.7567508
732,0.11017390903214205,-0.0545415391248228,-0.055632369907319255,-7.26,5.4,-1.7,32.25,1.375,-26.75,1746516869.775531
733,0.16689710972195776,-0.08617563181722002,-0.1189005552921137,-7.2700000000000005,5.3500000000000005,-1.75,32.25,1.375,-26.75,1746516869.796433
734,0.30870511144649704,-0.04690572364734761,-0.15817046346198613,-7.74,5.47,-1.85,30.0625,1.0,-26.75,1746516869.8158426
735,0.3763366199612773,0.03599741582238305,-0.1090830782496456,-7.65,5.58,-1.94,30.0625,1.0,-26.75,1746516869.8364515
736,0.3119776037939864,0.04036073895236887,-0.050178215994836975,-7.43,5.6000000000000005,-1.97,30.0625,1.0,-26.75,1746516869.8568423
737,0.21598449493429828,-0.037088246604879506,-0.11017390903214205,-7.47,5.58,-2.1,31.1875,-0.0625,-27.5625,1746516869.8759177
738,0.13308135546456762,-0.04690572364734761,-0.17235126363444003,-7.57,5.79,-2.23,31.1875,-0.0625,-27.5625,1746516869.896442
739,0.1090830782496456,-0.032724923474893676,-0.15489797111449674,-7.78,5.83,-2.11,31.1875,1.0,-25.0625,1746516869.9161246
740,0.06544984694978735,0.019634954084936207,-0.05235987755982989,-7.6000000000000005,5.74,-2.06,31.1875,1.0,-25.0625,1746516869.9365933
741,0.003272492347489368,-0.01090830782496456,-0.00545415391248228,-7.6000000000000005,5.57,-2.0,31.1875,1.0,-25.0625,1746516869.9571118
742,-0.025089107997418487,-0.04799655442984406,0.002181661564992912,-7.42,5.43,-2.0100000000000002,31.1875,0.5625,-25.5,1746516869.976226
743,-0.06981317007977318,-0.11126473981463851,-0.0272707695624114,-7.42,5.3500000000000005,-2.0100000000000002,31.1875,0.5625,-25.5,1746516869.9964938
744,-0.07308566242726255,-0.10144726277217041,-0.04363323129985824,-7.42,5.36,-1.94,31.875,-0.0625,-26.375,1746516870.0165555
745,-0.10362892433716332,-0.03599741582238305,-0.11453723216212788,-7.5,5.54,-1.96,31.875,-0.0625,-26.375,1746516870.0365977
746,-0.18980455615438332,-0.017453292519943295,-0.12326387842209953,-7.83,5.69,-1.99,31.875,-0.0625,-26.375,1746516870.0568583
747,-0.2912518189265537,-0.038179077387375956,-0.07090400086226964,-7.66,5.67,-1.95,31.875,0.5625,-25.875,1746516870.0764697
748,-0.3436116964863836,-0.0818123086872342,-0.09708393964218458,-7.79,5.67,-1.96,31.875,0.5625,-25.875,1746516870.0964692
749,-0.346884188833873,-0.004363323129985824,-0.039269908169872414,-7.79,5.72,-1.83,30.375,1.0,-25.5,1746516870.1167197
750,-0.35997415822383044,0.06763150851478027,0.05672320068981571,-7.61,5.49,-1.76,30.375,1.0,-25.5,1746516870.1367116
751,-0.4046982203061852,-0.001090830782496456,0.044724062082354694,-7.44,5.36,-1.6600000000000001,30.375,1.0,-25.5,1746516870.1568425
752,-0.45814892864851153,-0.061086523819801536,-0.009817477042468103,-7.43,5.37,-1.61,32.25,0.5625,-27.5625,1746516870.1768441
753,-0.3436116964863836,-0.019634954084936207,-0.07308566242726255,-7.32,5.18,-1.55,32.25,0.5625,-27.5625,1746516870.1968298
754,-0.18980455615438332,0.05126904677733343,-0.13526301702956053,-7.38,5.04,-1.47,31.5,2.75,-26.375,1746516870.21705
755,-0.09381144729469522,0.10253809355466686,-0.11562806294462433,-7.91,5.04,-1.32,31.5,2.75,-26.375,1746516870.237466
756,-0.055632369907319255,0.08290313946973066,-0.03490658503988659,-7.92,5.03,-1.3800000000000001,31.5,2.75,-26.375,1746516870.2571769
757,-0.026179938779914945,-0.0272707695624114,-0.016362461737446838,-7.640000000000001,5.13,-1.48,31.1875,2.375,-25.0625,1746516870.2771394
758,0.04581489286485115,-0.05345070834232634,-0.038179077387375956,-7.7,5.18,-1.52,31.1875,2.375,-25.0625,1746516870.2974544
759,0.15817046346198613,0.04254240051736178,-0.007635815477475192,-7.72,5.24,-1.44,33.0,2.0625,-26.375,1746516870.3174305
760,0.18544123302439752,0.06981317007977318,0.0,-7.63,5.19,-1.5,33.0,2.0625,-26.375,1746516870.337425
761,0.18980455615438332,-0.019634954084936207,-0.02181661564992912,-7.73,5.18,-1.67,33.0,2.0625,-26.375,1746516870.3575275
762,0.19198621771937624,-0.08508480103472356,-0.028361600344907856,-7.7,5.44,-1.75,30.75,3.5625,-25.5,1746516870.3775718
763,0.13962634015954636,-0.07963064712224129,-0.009817477042468103,-7.86,5.6000000000000005,-1.83,30.75,3.5625,-25.5,1746516870.3997476
764,0.0545415391248228,-0.08726646259971647,0.06217735460229799,-8.01,5.87,-1.77,30.0625,1.75,-25.875,1746516870.4177682
765,-0.04036073895236887,-0.07963064712224129,0.1308996938995747,-7.79,5.86,-1.79,30.0625,1.75,-25.875,1746516870.4394867
766,-0.10035643198967395,-0.05235987755982989,0.08726646259971647,-7.18,5.67,-1.7,30.0625,1.75,-25.875,1746516870.4579425
767,-0.13526301702956053,0.009817477042468103,-0.039269908169872414,-7.09,5.36,-1.69,33.0,2.0625,-27.1875,1746516870.4798772
768,-0.11344640137963143,0.08290313946973066,-0.136353847812057,-7.43,5.32,-1.57,33.0,2.0625,-27.1875,1746516870.5009189
769,-0.06981317007977318,0.1461713248545251,-0.12108221685710661,-7.71,5.19,-1.56,30.375,2.75,-26.375,1746516870.518161
770,-0.04254240051736178,0.10581058590215622,-0.10362892433716332,-7.63,5.15,-1.55,30.375,2.75,-26.375,1746516870.5407991
771,0.014180800172453928,0.038179077387375956,-0.14508049407202864,-7.46,5.1000000000000005,-1.3800000000000001,30.375,2.75,-26.375,1746516870.5583954
772,0.11235557059713497,0.037088246604879506,-0.23125612588924865,-7.67,5.09,-1.35,30.75,2.375,-25.5,1746516870.5783353
773,0.20725784867432664,0.07526732399225546,-0.22907446432425577,-8.120000000000001,5.04,-1.76,30.75,2.375,-25.5,1746516870.6017156
774,0.22252947962927702,0.044724062082354694,-0.1341721862470641,-8.39,5.04,-1.45,33.0,2.375,-26.75,1746516870.618593
775,0.2999784651865254,-0.02945243112740431,-0.002181661564992912,-8.0,4.75,-1.49,33.0,2.375,-26.75,1746516870.6413963
776,0.4723297288209654,-0.15926129424448257,-0.03599741582238305,-7.49,4.82,-1.59,33.0,2.375,-26.75,1746516870.6586964
777,0.5792311455056182,-0.1341721862470641,-0.15707963267948966,-7.78,5.15,-1.76,30.375,3.1875,-25.5,1746516870.681474
778,0.5410520681182421,0.05235987755982989,-0.16689710972195776,-7.92,5.37,-1.92,30.375,3.1875,-25.5,1746516870.7020776
779,0.4636030825609938,0.0818123086872342,-0.1559888018969932,-7.88,5.28,-1.98,31.1875,2.0625,-25.5,1746516870.7189372
780,0.40578905108868163,0.02399827721492203,-0.1810779098944117,-7.69,5.14,-2.08,31.1875,2.0625,-25.5,1746516870.7412302
781,0.35997415822383044,0.00545415391248228,-0.20616701789183017,-7.58,5.25,-2.16,31.1875,2.0625,-25.5,1746516870.7591228
782,0.25743606466916363,-0.016362461737446838,-0.24216443371421323,-7.96,5.32,-2.2,32.6875,2.0625,-28.375,1746516870.7815673
783,0.12435470920459599,-0.02399827721492203,-0.1810779098944117,-8.370000000000001,5.3500000000000005,-2.12,32.6875,2.0625,-28.375,1746516870.8021688
784,0.0719948316447661,-0.02945243112740431,-0.013089969389957472,-8.03,5.19,-2.2,30.375,2.0625,-24.25,1746516870.8194053
785,0.0545415391248228,-0.04908738521234052,0.02181661564992912,-7.58,5.1000000000000005,-2.2600000000000002,30.375,2.0625,-24.25,1746516870.842108
786,-0.013089969389957472,-0.020725784867432664,-0.031634092692397225,-7.63,5.15,-2.0,30.375,2.0625,-24.25,1746516870.8594973
787,-0.08726646259971647,0.020725784867432664,-0.055632369907319255,-7.82,5.01,-2.13,32.6875,2.0625,-26.375,1746516870.8821795
788,-0.12326387842209953,0.03599741582238305,-0.037088246604879506,-8.11,4.97,-2.05,32.6875,2.0625,-26.375,1746516870.902143
789,-0.08835729338221293,0.030543261909900768,0.07635815477475191,-8.07,4.8500000000000005,-2.0,31.5,2.0625,-28.0,1746516870.9198425
790,-0.05126904677733343,0.001090830782496456,0.09381144729469522,-7.7700000000000005,4.8500000000000005,-2.0300000000000002,31.5,2.0625,-28.0,1746516870.9420123
791,-0.05890486225480862,0.008726646259971648,0.025089107997418487,-7.74,4.7700000000000005,-1.93,31.5,2.0625,-28.0,1746516870.9603932
792,-0.05126904677733343,0.007635815477475192,-0.017453292519943295,-7.9,4.87,-1.92,30.375,2.375,-25.0625,1746516870.98208
793,0.002181661564992912,0.02399827721492203,-0.016362461737446838,-7.930000000000001,4.87,-1.96,30.375,2.375,-25.0625,1746516871.002201
794,0.0545415391248228,0.04690572364734761,-0.008726646259971648,-7.96,4.87,-1.98,31.875,2.375,-26.375,1746516871.0203168
795,0.050178215994836975,0.05126904677733343,0.019634954084936207,-8.05,4.97,-2.13,31.875,2.375,-26.375,1746516871.0421517
796,-0.00545415391248228,0.006544984694978736,0.028361600344907856,-8.02,5.03,-2.08,30.375,1.75,-26.375,1746516871.0616443
797,-0.038179077387375956,-0.044724062082354694,0.04036073895236887,-7.71,4.97,-2.05,30.375,1.75,-26.375,1746516871.082643
798,-0.014180800172453928,-0.055632369907319255,-0.001090830782496456,-7.8,4.9,-2.06,30.375,1.75,-26.375,1746516871.1027749
799,0.02399827721492203,0.02181661564992912,-0.009817477042468103,-7.890000000000001,4.84,-1.96,30.75,3.1875,-24.6875,1746516871.129888
800,0.011999138607461015,0.0719948316447661,0.001090830782496456,-7.890000000000001,4.83,-2.0,30.75,3.1875,-24.6875,1746516871.1426797
801,-0.017453292519943295,0.004363323129985824,-0.017453292519943295,-7.9,4.92,-1.99,32.6875,2.75,-26.375,1746516871.1620529
802,-0.044724062082354694,-0.07744898555724837,-0.026179938779914945,-7.86,4.96,-2.02,32.6875,2.75,-26.375,1746516871.1828136
803,-0.030543261909900768,-0.09272061651219876,-0.011999138607461015,-7.94,4.87,-2.02,32.6875,2.75,-26.375,1746516871.2027943
804,0.011999138607461015,-0.031634092692397225,0.002181661564992912,-7.9,4.88,-1.9000000000000001,31.1875,1.75,-26.375,1746516871.2222083
805,0.028361600344907856,0.05781403147231216,0.04254240051736178,-7.87,4.9,-1.97,31.1875,1.75,-26.375,1746516871.2427168
806,-0.014180800172453928,0.008726646259971648,0.018544123302439753,-7.74,4.99,-2.12,33.0,2.375,-25.0625,1746516871.2630699
807,-0.031634092692397225,-0.07308566242726255,-0.030543261909900768,-7.72,4.97,-2.1,33.0,2.375,-25.0625,1746516871.2826662
808,0.00545415391248228,-0.04581489286485115,-0.014180800172453928,-7.92,5.0200000000000005,-1.96,33.0,2.375,-25.0625,1746516871.3028815
809,0.008726646259971648,0.032724923474893676,0.0272707695624114,-7.9,5.07,-1.98,32.6875,1.75,-25.875,1746516871.3230023
810,-0.030543261909900768,0.044724062082354694,0.03599741582238305,-7.83,4.97,-1.99,32.6875,1.75,-25.875,1746516871.342807
811,-0.04145156973486533,0.011999138607461015,0.031634092692397225,-7.72,4.89,-1.98,30.75,1.0,-25.875,1746516871.3629403
812,-0.01090830782496456,-0.018544123302439753,-0.002181661564992912,-7.45,4.88,-2.02,30.75,1.0,-25.875,1746516871.3829286
813,0.02945243112740431,-0.002181661564992912,-0.08835729338221293,-7.73,4.84,-1.96,30.75,1.0,-25.875,1746516871.403323
814,0.06326818538479445,0.07526732399225546,-0.08508480103472356,-8.05,4.92,-1.9000000000000001,31.5,2.0625,-25.875,1746516871.423345
815,0.05781403147231216,0.11126473981463851,-0.001090830782496456,-8.27,5.0,-2.04,31.5,2.0625,-25.875,1746516871.4428768
816,0.02399827721492203,0.050178215994836975,0.05672320068981571,-8.02,5.0200000000000005,-1.94,32.6875,2.375,-25.875,1746516871.463205
817,-0.001090830782496456,-0.061086523819801536,0.04145156973486533,-7.67,4.98,-1.9100000000000001,32.6875,2.375,-25.875,1746516871.4834116
818,0.028361600344907856,-0.08835729338221293,-0.01090830782496456,-7.82,4.84,-2.2,32.6875,2.375,-25.875,1746516871.5029657
819,0.04799655442984406,0.018544123302439753,-0.009817477042468103,-7.87,4.83,-2.14,30.75,2.0625,-24.25,1746516871.5231788
820,0.03490658503988659,0.0916297857297023,0.009817477042468103,-7.94,4.86,-1.93,30.75,2.0625,-24.25,1746516871.543304
821,0.031634092692397225,0.050178215994836975,0.009817477042468103,-7.8100000000000005,4.82,-1.92,33.0,2.375,-25.875,1746516871.5633368
822,0.04254240051736178,-0.03490658503988659,-0.017453292519943295,-7.72,4.92,-2.05,33.0,2.375,-25.875,1746516871.5834646
823,0.018544123302439753,-0.07526732399225546,-0.038179077387375956,-7.95,5.0,-2.21,33.0,2.375,-25.875,1746516871.6033483
824,0.02181661564992912,-0.009817477042468103,0.026179938779914945,-7.97,5.17,-2.16,30.375,2.75,-26.375,1746516871.6236157
825,0.00545415391248228,0.02945243112740431,0.0719948316447661,-8.06,5.05,-2.15,30.375,2.75,-26.375,1746516871.64416
826,-0.04799655442984406,-0.028361600344907856,0.11453723216212788,-7.94,4.95,-2.0100000000000002,31.1875,0.5625,-25.5,1746516871.6638916
827,-0.11344640137963143,-0.17671458676442586,0.10690141668465268,-8.02,4.99,-2.06,31.1875,0.5625,-25.5,1746516871.684661
828,-0.136353847812057,-0.22689280275926285,0.13308135546456762,-7.92,5.16,-1.99,31.1875,0.5625,-25.5,1746516871.703753
829,-0.11453723216212788,-0.07853981633974483,0.16689710972195776,-7.57,5.23,-1.92,33.375,2.375,-25.5,1746516871.7239976
830,-0.12217304763960307,0.044724062082354694,0.11017390903214205,-7.47,5.08,-1.98,33.375,2.375,-25.5,1746516871.7464666
831,-0.13199052468207118,0.039269908169872414,-0.007635815477475192,-7.41,4.88,-1.77,30.375,0.5625,-26.75,1746516871.7641943
832,-0.08835729338221293,0.006544984694978736,-0.12326387842209953,-7.47,4.84,-1.82,30.375,0.5625,-26.75,1746516871.785711
833,-0.03381575425739013,0.05235987755982989,-0.1810779098944117,-7.640000000000001,4.91,-1.96,30.375,0.5625,-26.75,1746516871.8041294
834,-0.00545415391248228,0.1505346479845109,-0.15926129424448257,-7.930000000000001,4.97,-1.85,31.5,2.375,-25.5,1746516871.8265018
835,0.02399827721492203,0.1712604328519436,-0.04145156973486533,-8.290000000000001,4.98,-2.0,31.5,2.375,-25.5,1746516871.8477402
836,0.016362461737446838,0.038179077387375956,0.05672320068981571,-8.0,4.96,-1.94,32.25,2.75,-26.75,1746516871.8647661
837,-0.028361600344907856,-0.09490227807719166,0.061086523819801536,-7.83,5.03,-1.98,32.25,2.75,-26.75,1746516871.8876913
838,-0.039269908169872414,-0.09053895494720585,0.018544123302439753,-7.8500000000000005,5.07,-1.98,32.25,2.75,-26.75,1746516871.90451
839,-0.031634092692397225,-0.006544984694978736,0.025089107997418487,-7.99,5.11,-1.9100000000000001,30.75,1.375,-26.75,1746516871.9273715
840,0.013089969389957472,0.06435901616729091,0.06763150851478027,-7.9,5.0600000000000005,-1.8900000000000001,30.75,1.375,-26.75,1746516871.9476936
841,0.04908738521234052,0.07744898555724837,0.05890486225480862,-7.73,4.92,-1.92,32.6875,2.375,-25.875,1746516871.965598
842,0.04145156973486533,0.02945243112740431,-0.002181661564992912,-7.5600000000000005,4.8500000000000005,-1.94,32.6875,2.375,-25.875,1746516871.988396
843,0.018544123302439753,-0.031634092692397225,-0.05126904677733343,-8.03,5.11,-2.02,32.6875,2.375,-25.875,1746516872.0052705
844,-0.01090830782496456,-0.031634092692397225,0.038179077387375956,-8.17,5.33,-2.05,31.875,3.1875,-25.0625,1746516872.0285795
845,-0.05126904677733343,-0.006544984694978736,0.1308996938995747,-7.8100000000000005,5.33,-2.07,31.875,3.1875,-25.0625,1746516872.0488636
846,-0.061086523819801536,-0.001090830782496456,0.10362892433716332,-7.54,5.1000000000000005,-1.98,30.0625,0.5625,-25.875,1746516872.0656452
847,-0.06654067773228381,0.003272492347489368,0.037088246604879506,-7.5,4.9,-1.92,30.0625,0.5625,-25.875,1746516872.088493
848,-0.07853981633974483,-0.04145156973486533,-0.03381575425739013,-7.73,5.0,-1.8800000000000001,30.0625,0.5625,-25.875,1746516872.1056688
849,-0.05999569303730508,-0.037088246604879506,-0.032724923474893676,-7.84,5.16,-1.93,31.1875,2.375,-25.5,1746516872.1285343
850,0.009817477042468103,0.025089107997418487,-0.028361600344907856,-7.7,4.97,-1.86,31.1875,2.375,-25.5,1746516872.148771
851,0.050178215994836975,0.04581489286485115,-0.05235987755982989,-7.83,4.82,-1.92,30.375,2.0625,-26.375,1746516872.1664708
852,0.03490658503988659,-0.008726646259971648,-0.0272707695624114,-8.1,5.0200000000000005,-1.9100000000000001,30.375,2.0625,-26.375,1746516872.1885808
853,-0.003272492347489368,-0.07090400086226964,0.026179938779914945,-8.01,5.17,-1.9000000000000001,30.375,2.0625,-26.375,1746516872.206097
854,-0.019634954084936207,-0.07417649320975901,0.050178215994836975,-7.68,5.21,-2.0,30.0625,1.375,-25.0625,1746516872.2306154
855,-0.013089969389957472,-0.04036073895236887,0.03599741582238305,-7.65,5.09,-1.96,30.0625,1.375,-25.0625,1746516872.2488525
856,0.003272492347489368,0.020725784867432664,-0.016362461737446838,-7.78,5.08,-1.97,31.875,2.375,-26.375,1746516872.270466
857,-0.01090830782496456,0.04363323129985824,-0.009817477042468103,-7.79,5.1000000000000005,-1.94,31.875,2.375,-26.375,1746516872.2899477
858,-0.030543261909900768,0.031634092692397225,-0.002181661564992912,-7.92,5.13,-1.9000000000000001,30.375,2.375,-27.1875,1746516872.309502
859,-0.0272707695624114,-0.02399827721492203,0.05345070834232634,-7.8,5.09,-1.97,30.375,2.375,-27.1875,1746516872.3301597
860,-0.00545415391248228,-0.039269908169872414,0.04254240051736178,-7.59,5.04,-1.82,30.375,2.375,-27.1875,1746516872.350616
861,0.001090830782496456,-0.004363323129985824,0.017453292519943295,-7.76,4.97,-1.93,31.5,1.0,-26.0,1746516872.3698647
862,0.004363323129985824,0.02399827721492203,0.020725784867432664,-7.79,5.11,-1.82,31.5,1.0,-26.0,1746516872.390049
863,0.008726646259971648,0.038179077387375956,0.016362461737446838,-7.83,5.12,-1.81,31.5,2.375,-26.375,1746516872.4099429
864,0.018544123302439753,0.006544984694978736,0.011999138607461015,-7.8100000000000005,5.13,-1.82,31.5,2.375,-26.375,1746516872.4301963
865,0.037088246604879506,-0.013089969389957472,-0.007635815477475192,-7.78,5.07,-2.12,31.5,2.375,-26.375,1746516872.450286
866,0.009817477042468103,0.031634092692397225,-0.00545415391248228,-7.8,5.1000000000000005,-2.0,31.5,2.75,-25.5,1746516872.4706535
867,-0.001090830782496456,0.05345070834232634,0.017453292519943295,-7.8500000000000005,5.12,-1.8800000000000001,31.5,2.75,-25.5,1746516872.4900749
868,0.016362461737446838,0.009817477042468103,0.03599741582238305,-7.7700000000000005,5.22,-1.8800000000000001,32.6875,0.5625,-25.875,1746516872.5101085
869,0.032724923474893676,-0.02399827721492203,0.026179938779914945,-7.63,5.18,-2.02,32.6875,0.5625,-25.875,1746516872.5303645
870,0.026179938779914945,-0.01090830782496456,-0.020725784867432664,-7.65,5.19,-1.99,32.6875,0.5625,-25.875,1746516872.5504663
871,0.007635815477475192,0.06435901616729091,-0.020725784867432664,-7.8500000000000005,5.23,-2.0100000000000002,31.5,1.75,-26.375,1746516872.571013
872,-0.039269908169872414,0.06654067773228381,0.007635815477475192,-7.8500000000000005,5.23,-1.93,31.5,1.75,-26.375,1746516872.591149
873,-0.06326818538479445,0.007635815477475192,0.014180800172453928,-7.76,5.16,-1.9000000000000001,30.375,1.75,-25.5,1746516872.6105356
874,-0.055632369907319255,-0.022907446432425576,0.015271630954950384,-7.78,5.04,-1.92,30.375,1.75,-25.5,1746516872.6308038
875,-0.0272707695624114,-0.017453292519943295,0.013089969389957472,-7.73,5.0,-1.8800000000000001,30.375,1.75,-25.5,1746516872.6507835
876,-0.008726646259971648,0.04363323129985824,-0.007635815477475192,-7.75,5.07,-1.8900000000000001,33.0,1.0,-28.0,1746516872.6730337
877,0.00545415391248228,0.07853981633974483,0.011999138607461015,-7.9,5.1000000000000005,-1.8900000000000001,33.0,1.0,-28.0,1746516872.6918344
878,0.015271630954950384,0.016362461737446838,0.008726646259971648,-7.5600000000000005,5.05,-1.9000000000000001,31.1875,2.0625,-26.375,1746516872.7121162
879,0.011999138607461015,-0.05345070834232634,-0.06326818538479445,-7.59,5.09,-2.0300000000000002,31.1875,2.0625,-26.375,1746516872.7340138
880,0.022907446432425576,0.001090830782496456,-0.06435901616729091,-7.96,5.18,-2.0,31.1875,2.0625,-26.375,1746516872.751981
881,0.04581489286485115,0.09708393964218458,0.03490658503988659,-7.99,5.22,-1.99,31.1875,2.0625,-25.0625,1746516872.775581
882,0.022907446432425576,0.0545415391248228,0.09053895494720585,-7.84,5.18,-1.92,31.1875,2.0625,-25.0625,1746516872.7954056
883,-0.011999138607461015,-0.05999569303730508,0.08290313946973066,-7.61,5.11,-1.94,32.25,1.75,-27.1875,1746516872.8121026
884,-0.019634954084936207,-0.08835729338221293,0.017453292519943295,-7.29,5.1000000000000005,-1.94,32.25,1.75,-27.1875,1746516872.836313
885,0.007635815477475192,0.0272707695624114,-0.04908738521234052,-7.57,5.13,-1.97,32.25,1.75,-27.1875,1746516872.8533413
886,0.04363323129985824,0.1636246173744684,0.016362461737446838,-7.890000000000001,5.22,-1.97,30.375,2.0625,-25.5,1746516872.8764668
887,0.044724062082354694,0.13199052468207118,0.10471975511965978,-7.8100000000000005,5.22,-2.06,30.375,2.0625,-25.5,1746516872.8965566
888,0.009817477042468103,0.015271630954950384,0.12326387842209953,-7.54,5.14,-2.06,30.375,1.0,-24.6875,1746516872.9134536
889,-0.03381575425739013,-0.028361600344907856,0.1090830782496456,-7.61,5.13,-2.05,30.375,1.0,-24.6875,1746516872.9367092
890,-0.031634092692397225,0.031634092692397225,0.0916297857297023,-7.46,5.23,-1.96,30.375,1.0,-24.6875,1746516872.9537027
891,0.007635815477475192,0.12217304763960307,0.008726646259971648,-7.67,5.21,-2.0300000000000002,33.0,1.0,-26.75,1746516872.9765275
892,0.05672320068981571,0.18216874067690814,0.02945243112740431,-7.79,5.21,-2.05,33.0,1.0,-26.75,1746516872.9966156
893,0.04036073895236887,0.10471975511965978,-0.004363323129985824,-7.58,5.16,-2.06,30.75,1.0,-25.5,1746516873.0138452
894,-0.009817477042468103,0.028361600344907856,-0.06872233929727672,-7.95,5.29,-2.13,30.75,1.0,-25.5,1746516873.036586
895,-0.018544123302439753,0.03490658503988659,-0.04363323129985824,-8.03,5.39,-2.1,30.75,1.0,-25.5,1746516873.0543406
896,-0.013089969389957472,0.05235987755982989,0.05235987755982989,-7.930000000000001,5.38,-2.14,31.1875,1.0,-23.875,1746516873.0764968
897,-0.05345070834232634,0.0272707695624114,0.1189005552921137,-7.62,5.3500000000000005,-2.11,31.1875,1.0,-23.875,1746516873.0966141
898,-0.09926560120717749,-0.014180800172453928,0.09490227807719166,-7.33,5.18,-2.06,32.25,0.5625,-25.875,1746516873.1146202
899,-0.09381144729469522,-0.030543261909900768,0.002181661564992912,-7.59,5.16,-1.97,32.25,0.5625,-25.875,1746516873.1365201
900,-0.030543261909900768,0.022907446432425576,-0.007635815477475192,-7.68,5.18,-2.05,32.25,0.5625,-25.875,1746516873.1547918
901,0.011999138607461015,0.044724062082354694,0.030543261909900768,-7.55,5.26,-2.11,30.75,0.5625,-24.25,1746516873.1765091
902,0.006544984694978736,0.03381575425739013,0.011999138607461015,-7.5600000000000005,5.22,-2.1,30.75,0.5625,-24.25,1746516873.1966863
903,-0.013089969389957472,0.019634954084936207,-0.00545415391248228,-7.63,5.25,-2.09,32.25,1.0,-24.6875,1746516873.216472
904,-0.009817477042468103,0.018544123302439753,0.007635815477475192,-7.58,5.28,-2.14,32.25,1.0,-24.6875,1746516873.236611
905,-0.015271630954950384,0.00545415391248228,-0.00545415391248228,-7.640000000000001,5.33,-2.1,32.25,0.25,-26.375,1746516873.2567012
906,-0.018544123302439753,0.037088246604879506,-0.014180800172453928,-7.57,5.24,-2.14,32.25,0.25,-26.375,1746516873.276605
907,0.018544123302439753,0.07963064712224129,0.001090830782496456,-7.65,5.17,-2.08,32.25,0.25,-26.375,1746516873.2967484
908,0.037088246604879506,0.044724062082354694,0.006544984694978736,-7.75,5.21,-2.04,30.375,1.375,-25.0625,1746516873.315312
909,0.006544984694978736,-0.019634954084936207,0.016362461737446838,-7.73,5.36,-2.24,30.375,1.375,-25.0625,1746516873.3367145
910,-0.02945243112740431,-0.020725784867432664,0.031634092692397225,-7.83,5.47,-2.05,32.25,0.5625,-25.0625,1746516873.3555875
911,-0.04581489286485115,0.015271630954950384,0.07417649320975901,-7.74,5.48,-2.0,32.25,0.5625,-25.0625,1746516873.3766909
912,-0.037088246604879506,0.02181661564992912,0.09053895494720585,-7.29,5.1000000000000005,-2.2800000000000002,32.25,0.5625,-25.0625,1746516873.3968382
913,-0.050178215994836975,-0.019634954084936207,0.01090830782496456,-7.37,5.07,-2.13,30.375,1.0,-26.75,1746516873.4158254
914,-0.03599741582238305,0.003272492347489368,-0.06217735460229799,-7.63,5.24,-1.97,30.375,1.0,-26.75,1746516873.4368691
915,0.0272707695624114,0.06435901616729091,-0.05890486225480862,-7.8100000000000005,5.37,-2.11,31.1875,1.0,-25.5,1746516873.4559307
916,0.03381575425739013,0.06872233929727672,0.0,-7.7700000000000005,5.37,-2.23,31.1875,1.0,-25.5,1746516873.4767628
917,0.0,-0.016362461737446838,0.037088246604879506,-7.54,5.29,-2.14,31.1875,1.0,-25.5,1746516873.4968588
918,-0.003272492347489368,-0.05126904677733343,0.03490658503988659,-7.3100000000000005,5.26,-2.12,32.6875,0.5625,-25.0625,1746516873.5160437
919,-0.014180800172453928,0.03381575425739013,-0.04799655442984406,-7.5200000000000005,5.32,-2.07,32.6875,0.5625,-25.0625,1746516873.5373425
920,-0.020725784867432664,0.06544984694978735,-0.04690572364734761,-7.8100000000000005,5.39,-2.09,32.25,0.5625,-25.0625,1746516873.557306
921,-0.022907446432425576,0.04363323129985824,0.025089107997418487,-7.76,5.34,-2.15,32.25,0.5625,-25.0625,1746516873.5775042
922,-0.026179938779914945,-0.02399827721492203,0.050178215994836975,-7.47,5.15,-2.08,32.25,0.5625,-25.0625,1746516873.5973506
923,-0.022907446432425576,-0.07308566242726255,0.003272492347489368,-7.32,5.08,-2.06,32.25,1.375,-25.0625,1746516873.6177049
924,-0.007635815477475192,-0.02945243112740431,-0.05999569303730508,-7.45,5.2700000000000005,-2.04,32.25,1.375,-25.0625,1746516873.638474
925,0.013089969389957472,0.07744898555724837,-0.08508480103472356,-7.49,5.33,-1.95,31.5,0.5625,-25.5,1746516873.6580393
926,0.028361600344907856,0.09381144729469522,-0.04581489286485115,-7.88,5.32,-2.25,31.5,0.5625,-25.5,1746516873.678642
927,0.02945243112740431,0.006544984694978736,0.016362461737446838,-7.68,5.25,-2.17,31.5,0.5625,-25.5,1746516873.6976907
928,-0.001090830782496456,-0.07963064712224129,-0.02399827721492203,-7.5200000000000005,5.25,-2.16,31.5,-0.0625,-25.5,1746516873.7181318
929,0.0,-0.050178215994836975,-0.061086523819801536,-7.51,5.2700000000000005,-2.18,31.5,-0.0625,-25.5,1746516873.7389138
930,0.02945243112740431,0.04254240051736178,-0.06217735460229799,-7.65,5.3,-2.12,33.0,1.375,-25.0625,1746516873.758008
931,0.019634954084936207,0.06217735460229799,-0.04363323129985824,-7.84,5.3,-2.1,33.0,1.375,-25.0625,1746516873.7801595
932,0.003272492347489368,-0.01090830782496456,-0.008726646259971648,-7.96,5.2700000000000005,-2.15,33.0,1.375,-25.0625,1746516873.7980425
933,-0.022907446432425576,-0.0818123086872342,0.031634092692397225,-7.59,5.28,-2.11,32.25,2.0625,-24.6875,1746516873.8191261
934,-0.032724923474893676,-0.08508480103472356,-0.015271630954950384,-7.45,5.28,-2.12,32.25,2.0625,-24.6875,1746516873.8412359
935,0.002181661564992912,0.006544984694978736,-0.0545415391248228,-7.45,5.25,-2.06,31.1875,0.25,-25.5,1746516873.8583367
936,0.032724923474893676,0.04363323129985824,-0.08726646259971647,-7.83,5.28,-2.15,31.1875,0.25,-25.5,1746516873.879935
937,0.018544123302439753,0.007635815477475192,-0.06217735460229799,-7.82,5.2700000000000005,-2.2,31.1875,0.25,-25.5,1746516873.898413
