Packet number,Gyroscope X (deg/s),Gyroscope Y (deg/s),Gyroscope Z (deg/s),Accelerometer X (g),Accelerometer Y (g),Accelerometer Z (g),Magnetometer X (microteslas),Magnetometer Y (microteslas),Magnetometer Z (microteslas),Timestamp
0,0.0,0.001090830782496456,0.001090830782496456,0.38,9.69,0.21,16.0625,0.75,-11.25,1745522110.4145863
1,-0.002181661564992912,-0.001090830782496456,0.003272492347489368,0.38,9.66,0.2,18.5625,2.1875,-11.6875,1745522110.4339445
2,0.0,0.001090830782496456,0.002181661564992912,0.41000000000000003,9.67,0.21,18.5625,2.1875,-11.6875,1745522110.452836
3,-0.002181661564992912,0.002181661564992912,-0.002181661564992912,0.37,9.68,0.19,16.0625,1.0625,-10.875,1745522110.4745657
4,-0.001090830782496456,0.001090830782496456,0.001090830782496456,0.4,9.66,0.21,16.0625,1.0625,-10.875,1745522110.493772
5,-0.001090830782496456,0.0,0.002181661564992912,0.43,9.66,0.19,16.0625,1.0625,-10.875,1745522110.5138576
6,-0.001090830782496456,-0.002181661564992912,0.0,0.4,9.64,0.19,17.875,2.1875,-11.6875,1745522110.5368965
7,-0.002181661564992912,0.0,-0.001090830782496456,0.38,9.65,0.23,17.875,2.1875,-11.6875,1745522110.557452
8,0.001090830782496456,0.0,0.001090830782496456,0.39,9.64,0.25,16.375,1.5,-11.6875,1745522110.576531
9,0.0,-0.002181661564992912,0.001090830782496456,0.39,9.64,0.21,16.375,1.5,-11.6875,1745522110.5995152
10,0.0,0.002181661564992912,0.001090830782496456,0.4,9.67,0.2,16.375,1.5,-11.6875,1745522110.6177669
11,0.0,-0.003272492347489368,0.0,0.4,9.620000000000001,0.2,19.0,1.875,-12.75,1745522110.6395605
12,0.001090830782496456,-0.003272492347489368,0.001090830782496456,0.4,9.68,0.21,19.0,1.875,-12.75,1745522110.6599097
13,0.001090830782496456,0.001090830782496456,0.0,0.38,9.620000000000001,0.22,17.1875,1.0625,-10.875,1745522110.6796575
14,0.001090830782496456,-0.002181661564992912,0.002181661564992912,0.41000000000000003,9.63,0.21,17.1875,1.0625,-10.875,1745522110.6996706
15,-0.002181661564992912,-0.002181661564992912,0.002181661564992912,0.41000000000000003,9.65,0.22,17.1875,1.0625,-10.875,1745522110.718361
16,0.003272492347489368,-0.002181661564992912,0.0,0.37,9.700000000000001,0.18,17.1875,2.5625,-11.6875,1745522110.7397397
17,0.002181661564992912,0.0,0.001090830782496456,0.37,9.65,0.19,17.1875,2.5625,-11.6875,1745522110.7599561
18,0.0,0.001090830782496456,-0.001090830782496456,0.4,9.68,0.25,17.5,1.0625,-12.5,1745522110.7797544
19,-0.002181661564992912,0.001090830782496456,0.003272492347489368,0.41000000000000003,9.69,0.21,17.5,1.0625,-12.5,1745522110.7997284
20,-0.001090830782496456,0.0,0.0,0.38,9.61,0.2,17.1875,2.1875,-11.6875,1745522110.8187993
21,-0.001090830782496456,-0.001090830782496456,0.001090830782496456,0.41000000000000003,9.63,0.23,17.1875,2.1875,-11.6875,1745522110.8398335
22,-0.001090830782496456,-0.003272492347489368,0.0,0.39,9.64,0.24,17.1875,2.1875,-11.6875,1745522110.860015
23,0.001090830782496456,-0.003272492347489368,0.001090830782496456,0.37,9.65,0.23,17.5,1.0625,-10.0625,1745522110.879829
24,-0.001090830782496456,-0.001090830782496456,0.0,0.41000000000000003,9.72,0.18,17.5,1.0625,-10.0625,1745522110.8998022
25,-0.002181661564992912,-0.002181661564992912,-0.001090830782496456,0.38,9.58,0.24,16.375,1.875,-10.5,1745522110.9193773
26,0.0,-0.002181661564992912,0.003272492347489368,0.41000000000000003,9.64,0.25,16.375,1.875,-10.5,1745522110.939849
27,0.002181661564992912,0.0,-0.001090830782496456,0.4,9.69,0.2,16.375,1.875,-10.5,1745522110.9604683
28,0.0,0.001090830782496456,-0.002181661564992912,0.39,9.620000000000001,0.22,17.875,1.875,-12.75,1745522110.9799495
29,0.002181661564992912,-0.003272492347489368,0.002181661564992912,0.41000000000000003,9.700000000000001,0.23,17.875,1.875,-12.75,1745522110.999926
30,0.002181661564992912,-0.002181661564992912,0.002181661564992912,0.41000000000000003,9.64,0.22,15.6875,1.875,-12.0625,1745522111.019599
31,0.0,0.0,0.001090830782496456,0.37,9.620000000000001,0.18,15.6875,1.875,-12.0625,1745522111.0400374
32,0.001090830782496456,-0.002181661564992912,0.001090830782496456,0.41000000000000003,9.66,0.22,15.6875,1.875,-12.0625,1745522111.0606058
33,0.0,0.001090830782496456,0.001090830782496456,0.39,9.620000000000001,0.23,17.5,1.0625,-12.0625,1745522111.0801954
34,0.001090830782496456,-0.001090830782496456,0.001090830782496456,0.39,9.65,0.2,17.5,1.0625,-12.0625,1745522111.100126
35,0.002181661564992912,-0.002181661564992912,0.002181661564992912,0.36,9.65,0.22,16.375,1.875,-10.875,1745522111.120221
36,0.001090830782496456,0.002181661564992912,0.0,0.38,9.66,0.17,16.375,1.875,-10.875,1745522111.1401322
37,0.001090830782496456,0.0,0.002181661564992912,0.39,9.67,0.23,16.375,1.875,-10.875,1745522111.1608574
38,0.001090830782496456,0.0,-0.001090830782496456,0.39,9.68,0.2,18.25,1.5,-12.5,1745522111.1804583
39,0.0,0.002181661564992912,0.001090830782496456,0.4,9.620000000000001,0.2,18.25,1.5,-12.5,1745522111.2000875
40,0.001090830782496456,0.002181661564992912,0.001090830782496456,0.4,9.64,0.25,16.375,2.1875,-10.5,1745522111.2203636
41,0.001090830782496456,0.001090830782496456,0.001090830782496456,0.39,9.65,0.19,16.375,2.1875,-10.5,1745522111.2404034
42,-0.001090830782496456,0.001090830782496456,0.002181661564992912,0.4,9.64,0.21,16.375,2.1875,-10.5,1745522111.2605774
43,-0.001090830782496456,0.0,-0.001090830782496456,0.39,9.67,0.22,17.875,1.875,-11.6875,1745522111.280356
44,0.0,0.0,-0.001090830782496456,0.38,9.66,0.19,17.875,1.875,-11.6875,1745522111.3003595
45,0.001090830782496456,0.003272492347489368,0.0,0.39,9.63,0.21,16.375,1.875,-11.25,1745522111.3205154
46,0.002181661564992912,0.0,0.001090830782496456,0.4,9.64,0.21,16.375,1.875,-11.25,1745522111.340651
47,0.001090830782496456,0.0,0.001090830782496456,0.4,9.66,0.22,16.375,1.875,-11.25,1745522111.3617785
48,-0.002181661564992912,-0.002181661564992912,0.003272492347489368,0.4,9.67,0.18,18.5625,2.1875,-12.75,1745522111.381205
49,0.0,0.0,-0.001090830782496456,0.39,9.69,0.21,18.5625,2.1875,-12.75,1745522111.401285
50,0.001090830782496456,0.002181661564992912,0.0,0.4,9.69,0.18,16.375,1.875,-10.5,1745522111.4213994
51,0.002181661564992912,0.001090830782496456,0.002181661564992912,0.39,9.61,0.24,16.375,1.875,-10.5,1745522111.441277
52,-0.002181661564992912,-0.001090830782496456,0.003272492347489368,0.4,9.700000000000001,0.21,16.375,1.875,-10.5,1745522111.461485
53,0.001090830782496456,-0.001090830782496456,-0.002181661564992912,0.37,9.69,0.2,17.5,1.5,-13.25,1745522111.4813104
54,0.001090830782496456,-0.002181661564992912,-0.001090830782496456,0.4,9.64,0.17,17.5,1.5,-13.25,1745522111.5013542
55,-0.001090830782496456,-0.001090830782496456,0.0,0.4,9.67,0.22,17.1875,1.5,-10.875,1745522111.5221775
56,0.0,0.0,-0.001090830782496456,0.39,9.620000000000001,0.19,17.1875,1.5,-10.875,1745522111.5419614
57,0.0,0.0,0.0,0.41000000000000003,9.68,0.2,17.1875,1.5,-10.875,1745522111.561603
58,0.0,-0.001090830782496456,0.0,0.39,9.65,0.2,17.875,0.75,-12.75,1745522111.5831356
59,0.001090830782496456,0.0,0.001090830782496456,0.37,9.65,0.22,17.875,0.75,-12.75,1745522111.6024942
60,0.001090830782496456,0.003272492347489368,-0.002181661564992912,0.41000000000000003,9.67,0.24,16.75,1.0625,-10.875,1745522111.6240125
61,0.0,0.003272492347489368,0.0,0.39,9.64,0.18,16.75,1.0625,-10.875,1745522111.643104
62,0.001090830782496456,-0.001090830782496456,0.001090830782496456,0.39,9.64,0.17,16.75,1.0625,-10.875,1745522111.6620855
63,0.001090830782496456,-0.001090830782496456,0.0,0.4,9.66,0.22,18.25,1.5,-12.5,1745522111.68328
64,-0.002181661564992912,-0.001090830782496456,0.0,0.36,9.6,0.24,18.25,1.5,-12.5,1745522111.7036815
65,0.0,-0.001090830782496456,0.0,0.39,9.63,0.21,16.375,1.5,-10.875,1745522111.7245398
66,0.001090830782496456,0.0,-0.001090830782496456,0.4,9.65,0.2,16.375,1.5,-10.875,1745522111.7441301
67,0.0,0.0,0.001090830782496456,0.38,9.66,0.21,16.375,1.5,-10.875,1745522111.7627342
68,0.001090830782496456,-0.003272492347489368,-0.001090830782496456,0.39,9.64,0.23,18.25,1.5,-13.25,1745522111.7844424
69,0.0,0.0,0.001090830782496456,0.4,9.66,0.18,18.25,1.5,-13.25,1745522111.8046248
70,0.001090830782496456,-0.001090830782496456,0.001090830782496456,0.41000000000000003,9.66,0.22,16.375,2.1875,-11.25,1745522111.8252246
71,0.0,-0.001090830782496456,-0.001090830782496456,0.41000000000000003,9.63,0.19,16.375,2.1875,-11.25,1745522111.8452086
72,-0.002181661564992912,0.001090830782496456,-0.001090830782496456,0.4,9.72,0.18,16.375,2.1875,-11.25,1745522111.8631134
73,-0.001090830782496456,0.001090830782496456,-0.002181661564992912,0.41000000000000003,9.620000000000001,0.21,18.25,1.875,-12.75,1745522111.8854883
74,-0.001090830782496456,-0.001090830782496456,-0.001090830782496456,0.39,9.66,0.2,18.25,1.875,-12.75,1745522111.9059057
75,-0.003272492347489368,0.002181661564992912,-0.001090830782496456,0.37,9.69,0.19,16.0625,1.875,-11.25,1745522111.926145
76,-0.00545415391248228,0.002181661564992912,-0.002181661564992912,0.38,9.620000000000001,0.12,16.0625,1.875,-11.25,1745522111.9463203
77,0.0,0.003272492347489368,-0.001090830782496456,0.38,9.620000000000001,0.24,16.0625,1.875,-11.25,1745522111.9636993
78,0.001090830782496456,-0.001090830782496456,0.001090830782496456,0.37,9.63,0.28,18.25,2.1875,-12.75,1745522111.9862175
79,0.0,0.0,0.001090830782496456,0.38,9.620000000000001,0.22,18.25,2.1875,-12.75,1745522112.0067253
80,0.002181661564992912,0.001090830782496456,0.002181661564992912,0.36,9.63,0.22,15.6875,2.1875,-10.875,1745522112.0268862
81,0.003272492347489368,0.0,0.001090830782496456,0.4,9.66,0.17,15.6875,2.1875,-10.875,1745522112.046956
82,0.002181661564992912,-0.002181661564992912,-0.001090830782496456,0.38,9.65,0.22,15.6875,2.1875,-10.875,1745522112.064776
83,0.002181661564992912,0.001090830782496456,0.001090830782496456,0.37,9.61,0.24,18.25,1.875,-12.0,1745522112.0869083
84,0.003272492347489368,0.0,0.002181661564992912,0.41000000000000003,9.67,0.23,18.25,1.875,-12.0,1745522112.1071606
85,0.0,-0.003272492347489368,0.002181661564992912,0.41000000000000003,9.66,0.21,16.0625,1.875,-11.25,1745522112.1270797
86,-0.001090830782496456,0.0,-0.001090830782496456,0.4,9.66,0.19,16.0625,1.875,-11.25,1745522112.1472764
87,0.001090830782496456,-0.002181661564992912,0.001090830782496456,0.37,9.66,0.23,16.0625,1.875,-11.25,1745522112.1659436
88,0.003272492347489368,-0.002181661564992912,-0.001090830782496456,0.38,9.63,0.22,19.0,1.875,-12.0625,1745522112.1873403
89,0.002181661564992912,0.0,0.002181661564992912,0.39,9.65,0.23,19.0,1.875,-12.0625,1745522112.207597
90,0.002181661564992912,-0.001090830782496456,0.001090830782496456,0.39,9.67,0.23,16.75,1.0625,-9.6875,1745522112.2275429
91,0.002181661564992912,0.002181661564992912,0.001090830782496456,0.39,9.63,0.2,16.75,1.0625,-9.6875,1745522112.2474577
92,0.002181661564992912,0.0,0.0,0.39,9.66,0.25,18.25,1.875,-11.6875,1745522112.2667751
93,0.001090830782496456,-0.001090830782496456,0.002181661564992912,0.4,9.64,0.23,18.25,1.875,-11.6875,1745522112.2875683
94,0.001090830782496456,-0.001090830782496456,0.002181661564992912,0.41000000000000003,9.68,0.19,18.25,1.875,-11.6875,1745522112.3076944
95,0.002181661564992912,0.0,-0.001090830782496456,0.4,9.66,0.22,16.0625,2.1875,-11.6875,1745522112.3275783
96,0.001090830782496456,-0.001090830782496456,-0.002181661564992912,0.41000000000000003,9.64,0.2,16.0625,2.1875,-11.6875,1745522112.347541
97,0.002181661564992912,-0.003272492347489368,0.002181661564992912,0.38,9.63,0.22,18.25,2.1875,-13.6875,1745522112.3666768
98,0.003272492347489368,-0.001090830782496456,0.001090830782496456,0.4,9.63,0.22,18.25,2.1875,-13.6875,1745522112.3876247
99,0.002181661564992912,-0.001090830782496456,0.0,0.4,9.67,0.18,18.25,2.1875,-13.6875,1745522112.407755
100,0.001090830782496456,0.002181661564992912,0.0,0.39,9.61,0.22,17.1875,1.875,-9.25,1745522112.427766
101,0.003272492347489368,0.0,-0.001090830782496456,0.39,9.65,0.24,17.1875,1.875,-9.25,1745522112.4477236
102,0.001090830782496456,0.001090830782496456,-0.002181661564992912,0.35000000000000003,9.620000000000001,0.22,18.25,1.875,-11.6875,1745522112.4672763
103,0.001090830782496456,0.002181661564992912,0.0,0.39,9.68,0.21,18.25,1.875,-11.6875,1745522112.4877768
104,0.0,0.003272492347489368,0.0,0.41000000000000003,9.66,0.21,18.25,1.875,-11.6875,1745522112.507776
105,0.001090830782496456,0.0,0.002181661564992912,0.38,9.66,0.21,15.6875,1.0625,-11.6875,1745522112.5293117
106,0.003272492347489368,0.0,0.001090830782496456,0.37,9.63,0.23,15.6875,1.0625,-11.6875,1745522112.5493083
107,0.003272492347489368,0.002181661564992912,0.002181661564992912,0.39,9.620000000000001,0.29,18.5625,2.5625,-12.0625,1745522112.569721
108,0.019634954084936207,-0.00545415391248228,-0.00545415391248228,0.5700000000000001,9.72,0.26,18.5625,2.5625,-12.0625,1745522112.5894177
109,-0.020725784867432664,-0.003272492347489368,0.039269908169872414,0.62,9.96,0.34,18.5625,2.5625,-12.0625,1745522112.6096642
110,0.011999138607461015,0.00545415391248228,-0.025089107997418487,0.11,9.31,0.06,16.375,1.875,-11.6875,1745522112.6295397
111,0.008726646259971648,0.001090830782496456,-0.008726646259971648,0.32,9.59,0.22,16.375,1.875,-11.6875,1745522112.6494942
112,0.00545415391248228,-0.0719948316447661,-0.01090830782496456,0.5,9.66,-0.01,17.875,1.5,-12.0625,1745522112.6695144
113,0.016362461737446838,0.044724062082354694,-0.03599741582238305,0.2,9.290000000000001,-0.01,17.875,1.5,-12.0625,1745522112.68941
114,0.00545415391248228,0.09053895494720585,0.00545415391248228,0.37,9.700000000000001,0.34,17.875,1.5,-12.0625,1745522112.7096887
115,-0.002181661564992912,-0.002181661564992912,0.022907446432425576,0.32,9.53,0.17,15.6875,1.75,-11.25,1745522112.7295392
116,-0.00545415391248228,-0.017453292519943295,0.016362461737446838,0.52,9.700000000000001,0.09,15.6875,1.75,-11.25,1745522112.749565
117,-0.003272492347489368,-0.07744898555724837,0.0,0.41000000000000003,9.620000000000001,0.11,18.5625,1.75,-12.5,1745522112.7700834
118,-0.014180800172453928,-0.061086523819801536,0.01090830782496456,0.64,9.73,-0.17,18.5625,1.75,-12.5,1745522112.7899232
119,0.013089969389957472,-0.10035643198967395,-0.026179938779914945,0.55,9.620000000000001,-0.37,18.5625,1.75,-12.5,1745522112.8099813
120,0.001090830782496456,-0.0818123086872342,-0.001090830782496456,0.14,9.67,0.25,16.0625,1.375,-9.6875,1745522112.831321
121,-0.002181661564992912,-0.06872233929727672,0.004363323129985824,0.04,9.71,1.06,16.0625,1.375,-9.6875,1745522112.8515155
122,0.00545415391248228,-0.00545415391248228,-0.003272492347489368,0.5,9.77,0.22,17.1875,1.0,-12.0625,1745522112.8719673
123,-0.022907446432425576,0.001090830782496456,0.04254240051736178,0.63,9.94,0.34,17.1875,1.0,-12.0625,1745522112.8912032
124,-0.001090830782496456,0.003272492347489368,0.001090830782496456,0.29,9.540000000000001,0.16,17.1875,1.0,-12.0625,1745522112.9103951
125,0.009817477042468103,0.003272492347489368,-0.018544123302439753,0.24,9.49,0.12,15.6875,-0.0625,-10.0625,1745522112.9317396
126,0.0,0.001090830782496456,0.004363323129985824,0.52,9.790000000000001,0.31,15.6875,-0.0625,-10.0625,1745522112.9514847
127,0.003272492347489368,-0.002181661564992912,0.001090830782496456,0.55,9.85,0.32,18.25,0.6875,-13.1875,1745522112.9719
128,0.008726646259971648,0.02181661564992912,-0.014180800172453928,0.29,9.52,0.23,18.25,0.6875,-13.1875,1745522112.9909089
129,0.00545415391248228,0.03490658503988659,-0.006544984694978736,0.34,9.71,0.17,18.25,0.6875,-13.1875,1745522113.0109324
130,0.001090830782496456,0.025089107997418487,0.008726646259971648,0.37,9.63,0.19,16.75,-0.0625,-10.75,1745522113.0327983
131,-0.006544984694978736,0.026179938779914945,0.015271630954950384,0.43,9.59,0.22,16.75,-0.0625,-10.75,1745522113.0527258
132,-0.006544984694978736,0.022907446432425576,0.014180800172453928,0.19,9.57,0.31,17.5,0.6875,-11.25,1745522113.0711977
133,-0.001090830782496456,0.13853550937704992,0.016362461737446838,0.4,9.59,0.35000000000000003,17.5,0.6875,-11.25,1745522113.0917802
134,-0.013089969389957472,0.18980455615438332,0.031634092692397225,0.46,9.68,0.26,17.5,0.6875,-11.25,1745522113.1111896
135,-0.003272492347489368,0.19416787928436915,0.01090830782496456,0.5700000000000001,9.76,0.21,16.0625,1.0625,-10.75,1745522113.1319184
136,0.028361600344907856,0.16907877128695067,-0.03490658503988659,0.64,9.6,0.06,16.0625,1.0625,-10.75,1745522113.153265
137,0.015271630954950384,0.032724923474893676,-0.022907446432425576,0.66,9.72,-0.01,18.5625,2.1875,-11.6875,1745522113.1715693
138,-0.009817477042468103,-0.0719948316447661,0.016362461737446838,0.74,9.68,0.25,18.5625,2.1875,-11.6875,1745522113.1927183
139,-0.019634954084936207,-0.10035643198967395,0.019634954084936207,0.3,9.65,0.47000000000000003,18.5625,2.1875,-11.6875,1745522113.2115796
140,-0.015271630954950384,-0.004363323129985824,0.016362461737446838,0.4,9.59,0.33,16.375,0.375,-10.0625,1745522113.2353244
141,-0.026179938779914945,0.015271630954950384,0.030543261909900768,0.58,9.75,0.22,16.375,0.375,-10.0625,1745522113.2543433
142,-0.006544984694978736,0.003272492347489368,-0.006544984694978736,0.51,9.63,0.39,19.25,0.375,-9.25,1745522113.2747936
143,-0.03490658503988659,0.00545415391248228,0.015271630954950384,0.41000000000000003,9.68,0.13,19.25,0.375,-9.25,1745522113.2939403
144,-0.11344640137963143,-0.002181661564992912,-0.04908738521234052,0.13,9.72,0.08,19.25,0.375,-9.25,1745522113.3119376
145,-0.1090830782496456,0.031634092692397225,-0.10035643198967395,0.03,9.76,0.4,17.1875,-0.6875,-10.5,1745522113.33547
146,-0.1308996938995747,0.07744898555724837,-0.07308566242726255,0.21,9.68,0.33,17.1875,-0.6875,-10.5,1745522113.3554654
147,-0.3327033886614191,0.08290313946973066,-0.07635815477475191,0.62,9.950000000000001,0.13,20.375,-2.0625,-10.0625,1745522113.3723207
148,-0.6610434541928523,0.04363323129985824,-0.061086523819801536,0.5700000000000001,9.620000000000001,0.03,20.375,-2.0625,-10.0625,1745522113.3952162
149,-0.9413869652944415,0.09272061651219876,0.1341721862470641,0.4,9.36,0.91,20.375,-2.0625,-10.0625,1745522113.4123461
150,-1.0199267816341864,0.06981317007977318,0.27379852640661045,0.1,9.48,1.34,18.5625,-3.5625,-8.875,1745522113.436106
151,-0.9424777960769379,0.017453292519943295,0.11453723216212788,-0.29,9.51,0.9,18.5625,-3.5625,-8.875,1745522113.4560182
152,-0.9490227807719167,0.17889624832941878,0.06326818538479445,0.11,9.85,1.1300000000000001,19.6875,-3.5625,-9.6875,1745522113.4730453
153,-0.9348419805994628,0.2683443724941282,0.21707532571679475,0.52,10.19,1.19,19.6875,-3.5625,-9.6875,1745522113.495577
154,-0.7886706557449377,0.2923426497090502,0.5225079448158024,1.44,11.66,1.6400000000000001,19.6875,-3.5625,-9.6875,1745522113.512703
155,-0.385063266221249,0.23343778745424157,0.7264933011426397,1.07,11.5,1.06,16.0625,-4.25,-11.6875,1745522113.5361521
156,-0.15926129424448257,0.24980024919168842,0.6664976081053346,-0.02,10.81,1.52,16.0625,-4.25,-11.6875,1745522113.5560439
157,-0.11017390903214205,0.33597588100890846,0.46142142099600086,0.47000000000000003,10.38,1.57,14.5625,-5.0,-13.1875,1745522113.57308
158,-0.17671458676442586,0.3436116964863836,0.39706240482870997,0.9500000000000001,10.13,1.5,14.5625,-5.0,-13.1875,1745522113.5958734
159,-0.2301652951067522,0.346884188833873,0.6479534848028948,1.53,9.83,1.8,14.5625,-5.0,-13.1875,1745522113.613082
160,-0.3174317577064687,0.2716168648416175,0.8530296719122286,1.54,9.39,1.9000000000000001,2.5625,-7.5625,-12.5,1745522113.6364584
161,-0.4886921905584123,0.28034351110158917,0.9533861039019025,0.76,8.86,2.05,2.5625,-7.5625,-12.5,1745522113.6561007
162,-0.6861325621902709,0.4341506514335895,1.0461067204141012,0.55,8.69,2.0,-5.0,-8.5625,-16.0,1745522113.6734927
163,-0.9053895494720584,0.5094179754258449,0.9708393964218458,1.78,9.38,1.8900000000000001,-5.0,-8.5625,-16.0,1745522113.6958942
164,-0.842121364087264,0.48978302134090873,1.036289243371633,1.4000000000000001,9.26,2.22,-5.0,-8.5625,-16.0,1745522113.7134993
165,-0.8388488717397746,0.5006913291658733,1.2370021073509812,2.11,8.86,1.8900000000000001,-12.75,-10.5,-16.375,1745522113.7361705
166,-0.8704829644321719,0.5017821599483697,1.4388058021128254,2.41,8.44,2.77,-12.75,-10.5,-16.375,1745522113.7562492
167,-0.8290313946973066,0.4625122517784973,1.327541062298187,2.23,7.890000000000001,2.71,-15.0,-10.0625,-21.5,1745522113.7741756
168,-1.0395617357191225,0.38942658935123475,0.9435686268594344,2.7,8.23,2.99,-15.0,-10.0625,-21.5,1745522113.795991
169,-1.1988230299636051,0.37960911230876665,0.7221299780126539,2.9,8.33,3.02,-15.0,-10.0625,-21.5,1745522113.8140793
170,-1.2697270308258748,0.3174317577064687,0.7744898555724837,2.89,8.5,3.25,-21.5625,-10.5,-21.0625,1745522113.8364959
171,-1.3319043854281727,0.2814343418840856,1.1388273369263,3.19,8.77,3.7,-21.5625,-10.5,-21.0625,1745522113.8565397
172,-1.2293662918735058,0.31306843457648287,1.1955505376161157,3.09,8.66,3.75,-21.5,-8.25,-24.5625,1745522113.8747497
173,-1.1126473981463851,0.30543261909900765,0.9937468428542714,2.98,7.96,3.75,-21.5,-8.25,-24.5625,1745522113.8963478
174,-1.074468320759009,0.38069994309126315,0.8770279491271507,3.02,7.86,3.89,-24.0625,-6.1875,-25.375,1745522113.9145296
175,-1.0711958284115197,0.47123889803846897,0.9817477042468103,1.3800000000000001,7.16,4.54,-24.0625,-6.1875,-25.375,1745522113.9366715
176,-1.0875582901489667,0.7712173632249943,1.4486232791552935,2.79,6.640000000000001,5.47,-24.0625,-6.1875,-25.375,1745522113.9567506
177,-1.2435470920459597,0.918479518862016,1.2359112765684845,4.87,6.75,5.4,-23.1875,-3.6875,-28.875,1745522113.975123
178,-1.337358539340655,0.5530512067257032,0.6141377305455047,4.51,7.24,5.66,-23.1875,-3.6875,-28.875,1745522113.9963126
179,-1.3744467859455345,0.40578905108868163,0.5585053606381855,4.9,7.48,5.55,-25.75,-0.375,-27.75,1745522114.0148551
180,-1.3089969389957472,0.2792526803190927,0.7941248096574199,4.22,7.8,5.34,-25.75,-0.375,-27.75,1745522114.037369
181,-1.1311915214488248,0.3425208657038872,0.940296134511945,3.5100000000000002,7.19,5.73,-25.75,-0.375,-27.75,1745522114.0573127
182,-1.040652566501619,0.42978732830360367,1.0842857978014773,2.94,5.04,5.94,-22.75,2.0625,-30.75,1745522114.0769389
183,-1.3057244466482578,0.8235772407848243,1.0701049976290233,3.65,4.91,6.29,-22.75,2.0625,-30.75,1745522114.0970845
184,-1.4420782944603148,0.8573929950422144,0.9381144729469522,4.28,5.62,6.96,-25.375,4.875,-30.375,1745522114.1166756
185,-1.5140731261050808,0.7952156404399164,0.6970408700152354,5.34,5.86,6.75,-25.375,4.875,-30.375,1745522114.1388712
186,-1.4398966328953218,0.6021385919380436,0.7766715171374766,4.28,4.88,7.24,-25.375,4.875,-30.375,1745522114.1575577
187,-1.4704398948052226,0.6065019150680295,1.1388273369263,3.87,4.62,7.25,-21.75,8.1875,-32.75,1745522114.1773481
188,-1.5751596499248823,0.7232208087951503,1.2926344772583003,3.2,5.63,7.24,-21.75,8.1875,-32.75,1745522114.1972482
189,-1.5184364492350666,0.7723081940074908,1.2620912153483996,4.71,6.05,7.58,-22.75,10.6875,-30.75,1745522114.217132
190,-1.0733774899765127,0.5443245604657315,0.41233403578366035,4.75,5.5,7.41,-22.75,10.6875,-30.75,1745522114.2376435
191,-0.9010262263420726,0.44724062082354693,0.3785182815262702,4.34,4.47,7.74,-22.75,10.6875,-30.75,1745522114.257903
192,-0.9097528726020443,0.43196898986859655,0.6512259771503842,4.95,5.08,7.68,-20.5,14.375,-34.75,1745522114.2774372
193,-0.6741334235828098,0.284706834231575,0.6566801310628665,4.14,4.69,7.63,-20.5,14.375,-34.75,1745522114.2973344
194,-0.5268712679457882,0.3021601267515183,0.6217735460229799,2.97,3.2800000000000002,7.92,-21.25,15.75,-32.375,1745522114.3173323
195,-0.6305001922829515,0.4821472058634335,0.7603090554000298,4.42,3.46,8.06,-21.25,15.75,-32.375,1745522114.338655
196,-0.5672320068981571,0.28361600344907856,0.4079707126536745,5.28,4.01,8.040000000000001,-21.25,15.75,-32.375,1745522114.3576055
197,-0.3523383427463553,-0.0272707695624114,0.04036073895236887,4.24,3.45,8.22,-18.375,17.875,-35.1875,1745522114.3780527
198,-0.29888763440402893,-0.14835298641951802,-0.2792526803190927,2.48,1.76,8.33,-18.375,17.875,-35.1875,1745522114.3982642
199,-0.44724062082354693,-0.018544123302439753,-0.4243331743911214,2.68,2.27,8.14,-19.875,19.6875,-32.6875,1745522114.4177628
200,-0.43524148221608594,0.11999138607461016,-0.36979163526629855,4.29,3.15,7.3100000000000005,-19.875,19.6875,-32.6875,1745522114.439311
201,-0.37960911230876665,0.11235557059713497,-0.43196898986859655,4.8500000000000005,3.2600000000000002,7.17,-19.875,19.6875,-32.6875,1745522114.4579325
202,-0.35452000431134817,-0.015271630954950384,-0.6414085001079161,4.64,3.49,7.69,-19.5,20.375,-34.25,1745522114.4791777
203,-0.1832595714594046,-0.14180800172453928,-0.8268497331323136,4.45,3.54,7.95,-19.5,20.375,-34.25,1745522114.4989252
204,0.12435470920459599,-0.13526301702956053,-0.6566801310628665,3.42,3.36,8.2,-20.5,20.0625,-32.6875,1745522114.5192435
205,0.34033920413889424,-0.061086523819801536,-0.45814892864851153,3.69,3.17,7.83,-20.5,20.0625,-32.6875,1745522114.5401232
206,0.3741549583962844,-0.1265363707695889,-0.7374016089676042,4.62,3.88,7.930000000000001,-20.5,20.0625,-32.6875,1745522114.5583425
207,0.4799655442984406,-0.37306412761378793,-1.4148075248979033,5.21,4.39,7.75,-19.5,20.0625,-35.0625,1745522114.5799463
208,0.6032294227205401,-0.6326818538479445,-2.040944394050869,4.39,5.19,7.92,-19.5,20.0625,-35.0625,1745522114.5999432
209,0.9370236421644557,-0.5388704065532492,-2.1325741797805713,3.86,5.0600000000000005,8.26,-22.0,18.25,-31.875,1745522114.6184387
210,1.2948161388232933,-0.33488505022641196,-1.8642298072864432,3.94,4.5600000000000005,8.35,-22.0,18.25,-31.875,1745522114.6412058
211,1.3919000784654778,-0.19962203319685143,-1.4388058021128254,3.92,2.37,8.28,-22.0,18.25,-31.875,1745522114.658697
212,0.9522952731194061,-0.16471544815696484,-1.08646745936647,3.5100000000000002,2.57,8.33,-22.0,15.375,-34.25,1745522114.68103
213,0.5770494839406252,-0.18980455615438332,-1.1813697374436618,2.22,3.6,8.13,-22.0,15.375,-34.25,1745522114.7008998
214,0.24870941840919197,-0.15162547876700738,-1.7889624832941877,1.44,4.32,7.7,-25.25,13.0625,-33.875,1745522114.7188108
215,0.05672320068981571,0.08835729338221293,-2.1740257495154367,2.12,5.96,7.46,-25.25,13.0625,-33.875,1745522114.741996
216,0.07526732399225546,0.16253378659197193,-2.36383030566982,2.68,6.7,7.2700000000000005,-25.25,13.0625,-33.875,1745522114.7591925
217,0.26398104936414235,0.17889624832941878,-2.091122610045706,1.8800000000000001,6.8100000000000005,7.8100000000000005,-24.1875,8.6875,-35.0625,1745522114.7818387
218,0.4461497900410505,0.3174317577064687,-1.7311484518218756,1.37,5.87,7.79,-24.1875,8.6875,-35.0625,1745522114.8018107
219,0.272707695624114,0.3523383427463553,-1.8718656227639185,1.57,6.41,7.78,-25.25,5.75,-32.6875,1745522114.8191628
220,0.055632369907319255,0.26070855701665296,-2.288562981677565,2.44,6.7,7.62,-25.25,5.75,-32.6875,1745522114.8426843
221,-0.17998707911191522,0.022907446432425576,-2.772891849105991,2.84,7.47,7.8,-25.25,5.75,-32.6875,1745522114.859375
222,-0.13744467859455345,-0.2530727415391778,-2.7401669256310974,0.68,8.67,8.0,-23.5,3.25,-35.875,1745522114.8826725
223,0.35452000431134817,-0.11126473981463851,-2.4816400301794372,1.18,7.99,8.120000000000001,-23.5,3.25,-35.875,1745522114.9028258
224,0.5977752688080579,-0.09708393964218458,-2.138028333693054,0.64,5.36,7.930000000000001,-24.875,0.375,-33.875,1745522114.919517
225,0.30325095753401476,-0.16471544815696484,-1.667880266437081,0.61,5.53,7.74,-24.875,0.375,-33.875,1745522114.9430623
226,-0.014180800172453928,-0.33161255787892263,-1.5227997723650526,0.15,5.74,7.83,-24.875,0.375,-33.875,1745522114.959748
227,-0.3785182815262702,-0.47123889803846897,-1.4955290028026411,0.12,6.21,8.16,-22.0,-3.1875,-37.0625,1745522114.9830215
228,-0.5770494839406252,-0.6141377305455047,-1.5849771269673505,0.22,6.29,8.11,-22.0,-3.1875,-37.0625,1745522115.0031838
229,-0.5868669609830933,-0.7395832705325971,-1.7300576210393792,-1.1400000000000001,5.33,7.84,-24.1875,-5.0625,-32.6875,1745522115.019878
230,-0.6883142237552637,-0.6872233929727672,-1.5009831567151235,-1.8,4.64,7.84,-24.1875,-5.0625,-32.6875,1745522115.0435002
231,-0.9915651812892785,-0.5519603759432067,-1.5173456184525702,-1.72,4.4,8.09,-24.1875,-5.0625,-32.6875,1745522115.060056
232,-1.3559026626430948,-0.5083271446433485,-1.9078630385863016,-1.95,4.15,8.34,-23.5,-6.5,-35.875,1745522115.083601
233,-1.844594853201507,-0.43524148221608594,-2.2351122733352384,-2.47,3.92,9.14,-23.5,-6.5,-35.875,1745522115.103644
234,-2.3725569519297918,-0.23343778745424157,-2.6136305548615084,-2.13,2.98,9.81,-25.25,-6.5,-34.6875,1745522115.120212
235,-2.9670597283903604,-0.17998707911191522,-2.2765638430701034,-2.2,3.86,9.66,-25.25,-6.5,-34.6875,1745522115.1437964
236,-3.0008754826477504,-0.1341721862470641,-2.111848394913139,-2.5100000000000002,5.09,9.31,-25.25,-6.5,-34.6875,1745522115.160426
237,-2.52090993834931,0.039269908169872414,-1.820596575986585,-2.38,6.51,8.51,-22.6875,-5.75,-38.5625,1745522115.1835535
238,-1.5391622341024993,0.210530341021816,-1.0570150282390658,-2.79,7.48,8.620000000000001,-22.6875,-5.75,-38.5625,1745522115.20373
239,-0.4799655442984406,0.4559672670835186,-0.7417649320975901,-2.48,5.79,8.99,-22.6875,-2.875,-35.5,1745522115.2205482
240,-0.03599741582238305,0.605411084285533,-0.7570365630525404,-1.87,3.0100000000000002,9.700000000000001,-22.6875,-2.875,-35.5,1745522115.243846
241,-0.0818123086872342,0.6305001922829515,-0.9326603190344699,-1.68,2.31,9.96,-22.6875,-2.875,-35.5,1745522115.260725
242,-0.32070425005395803,0.5835944686356039,-0.9272061651219876,-2.73,1.77,9.5,-20.5,-1.375,-38.5625,1745522115.2836008
243,-0.5879577917655898,0.6468626540203984,-0.9697485656393493,-3.5,1.92,9.58,-20.5,-1.375,-38.5625,1745522115.3037212
244,-0.6806784082777885,0.8672104720846825,-0.9293878266869805,-2.7,1.83,8.75,-21.25,-1.5,-36.1875,1745522115.3209064
245,-0.7973973020049093,0.9272061651219876,-0.557414529855689,-3.77,2.2800000000000002,9.33,-21.25,-1.5,-36.1875,1745522115.3439093
246,-0.8213955792198313,1.069014166846527,-0.7526732399225546,-5.21,3.58,9.84,-21.25,-1.5,-36.1875,1745522115.3611026
247,-0.47669305195095124,1.3449943548181302,-0.6697701004528239,-4.41,3.23,9.06,-18.6875,-1.1875,-38.1875,1745522115.3838065
248,-0.13962634015954636,1.423534171157875,-0.5475970528132209,-4.54,2.0300000000000002,8.55,-18.6875,-1.1875,-38.1875,1745522115.4040043
249,-0.04145156973486533,1.4388058021128254,-0.4908738521234052,-4.2700000000000005,0.47000000000000003,9.34,-19.0625,0.5625,-36.6875,1745522115.4214733
250,-0.2912518189265537,1.3057244466482578,-0.32070425005395803,-4.8500000000000005,2.0,8.65,-19.0625,0.5625,-36.6875,1745522115.4443865
251,-0.30870511144649704,1.1791880758786688,-0.06217735460229799,-4.9,2.46,8.58,-19.0625,0.5625,-36.6875,1745522115.4644117
252,-0.05890486225480862,1.0428342280666119,0.11453723216212788,-5.65,2.2800000000000002,8.15,-18.0,-0.5,-36.6875,1745522115.4838197
253,0.25089107997418486,0.954476934684399,0.35124751196385884,-5.97,1.56,8.11,-18.0,-0.5,-36.6875,1745522115.5040092
254,0.4385139745635753,0.8901179185171081,0.38942658935123475,-5.97,0.79,7.75,-17.25,2.0625,-37.0625,1745522115.5220275
255,0.40033489717619936,0.7341291166201148,0.7286749627076325,-5.8100000000000005,1.93,7.92,-17.25,2.0625,-37.0625,1745522115.5456548
256,0.4134248665661568,0.6784967467127956,0.7526732399225546,-5.48,3.06,7.68,-18.6875,2.75,-38.5625,1745522115.5649836
257,0.8552113334772214,0.45487643630102215,1.0995574287564276,-3.85,3.06,7.33,-18.6875,2.75,-38.5625,1745522115.5855207
258,1.2784536770858463,0.10253809355466686,1.189005552921137,-1.76,1.84,7.640000000000001,-18.6875,2.75,-38.5625,1745522115.6055336
259,1.3951725708129672,-0.6348635154129374,1.4464416175903005,-1.33,0.63,7.25,-20.0625,4.375,-39.0625,1745522115.6253633
260,1.2948161388232933,-1.4126258633329105,2.083486794568231,-1.46,0.93,7.1000000000000005,-20.0625,4.375,-39.0625,1745522115.645605
261,1.1879147221386406,-2.0823959637857343,2.7281677870236365,-1.41,2.73,7.3500000000000005,-23.75,5.75,-37.375,1745522115.665336
262,1.1955505376161157,-2.691079540418757,3.234313270101992,-1.5,3.85,7.58,-23.75,5.75,-37.375,1745522115.6854298
263,1.2097313377885697,-3.0292370829926583,3.341214686786645,-2.25,5.67,8.120000000000001,-23.75,5.75,-37.375,1745522115.705659
264,1.526072264712542,-3.07177948351002,3.169954253934701,-4.04,4.5600000000000005,8.32,-26.5625,9.0,-37.0625,1745522115.7254627
265,1.6493361431346414,-2.632174678163948,2.5623615080841753,-2.73,3.85,7.99,-26.5625,9.0,-37.0625,1745522115.746898
266,1.4453507868078042,-2.3681936287998058,2.5132741228718345,-1.69,4.04,7.18,-30.25,12.1875,-34.5625,1745522115.7655408
267,1.1497356447512646,-2.2132956576853093,2.7510752334560618,-1.9000000000000001,4.61,6.83,-30.25,12.1875,-34.5625,1745522115.7857058
268,0.9468411192069238,-1.8533214994614786,2.931062312567977,-2.13,4.94,7.3100000000000005,-30.25,12.1875,-34.5625,1745522115.805637
269,0.770126532442498,-1.2184579840485412,2.5252732614792954,-0.8200000000000001,6.12,7.73,-34.5625,15.875,-30.1875,1745522115.8261921
270,0.9119345341670372,-0.8137597637423561,1.894773069196344,0.55,6.5600000000000005,7.36,-34.5625,15.875,-30.1875,1745522115.8474169
271,1.0417433972841155,-0.7155849933176751,1.8958638999788404,0.3,6.07,7.68,-33.5,18.25,-30.5625,1745522115.8659515
272,0.8977537339945832,-0.5115996369908379,2.088940948480713,-0.3,5.8,7.8,-33.5,18.25,-30.5625,1745522115.8859298
273,0.7952156404399164,-0.12217304763960307,2.0682151636132806,1.01,6.0600000000000005,7.48,-33.5,18.25,-30.5625,1745522115.9059813
274,0.7963064712224128,0.2628902185816459,1.7191493132144147,2.2800000000000002,6.08,7.23,-32.1875,21.1875,-30.1875,1745522115.9272776
275,0.856302164259718,0.3327033886614191,1.509709802975095,2.97,5.32,6.9,-32.1875,21.1875,-30.1875,1745522115.9484959
276,0.7843073326149519,0.3327033886614191,1.3057244466482578,2.46,4.46,6.74,-30.0,21.0625,-33.375,1745522115.966367
277,0.39051742013373125,0.5661411761156606,1.3668109704680593,1.8900000000000001,3.73,6.91,-30.0,21.0625,-33.375,1745522115.9872246
278,-0.31634092692397225,1.1759155835311796,1.2217304763960306,1.86,3.31,7.04,-30.0,21.0625,-33.375,1745522116.0064452
279,-0.9872018581592926,1.7813266678167126,1.1061024134514064,3.86,4.21,8.41,-25.6875,21.0625,-34.5625,1745522116.028092
280,-0.9926560120717749,1.8860464229363723,0.42978732830360367,4.3500000000000005,4.25,8.45,-25.6875,21.0625,-34.5625,1745522116.0490358
281,-1.0221084431991792,1.7758725139042304,0.13526301702956053,4.26,4.42,8.99,-24.0,18.6875,-37.25,1745522116.0667102
282,-1.1562806294462433,1.7573283906017905,-0.050178215994836975,4.15,4.76,8.77,-24.0,18.6875,-37.25,1745522116.0881312
283,-1.4464416175903005,1.9034997154563156,0.019634954084936207,5.05,5.66,9.370000000000001,-24.0,18.6875,-37.25,1745522116.10679
284,-1.1126473981463851,1.6209745427897335,-0.4068798818711781,7.8500000000000005,5.25,9.1,-18.0625,19.0625,-38.375,1745522116.1291978
285,-0.6686792696703275,1.066832505281534,-1.2871803233458181,5.46,3.56,8.18,-18.0625,19.0625,-38.375,1745522116.150212
286,-1.0253809355466685,0.6326818538479445,-0.17235126363444003,6.86,3.72,7.91,-15.0625,18.0,-41.1875,1745522116.1671472
287,-1.5293447570600314,-0.22252947962927702,-0.7428557628800865,5.0200000000000005,4.55,9.9,-15.0625,18.0,-41.1875,1745522116.1893213
288,-1.6307920198322017,-0.24980024919168842,-0.6479534848028948,3.68,4.3,9.27,-15.0625,18.0,-41.1875,1745522116.2071948
289,-1.581704634619861,-0.5094179754258449,0.1712604328519436,1.42,3.81,8.56,-9.6875,20.1875,-41.5625,1745522116.2303882
290,-1.734420944169365,-0.06326818538479445,1.4442599560253078,4.66,4.88,7.0600000000000005,-9.6875,20.1875,-41.5625,1745522116.251338
291,-1.9907661780560322,-0.3196134192714616,1.3689926320330523,2.7800000000000002,5.18,8.44,-12.25,21.0,-40.375,1745522116.267544
292,-1.213003830136059,-0.8672104720846825,0.7973973020049093,0.86,5.5200000000000005,7.91,-12.25,21.0,-40.375,1745522116.2901907
293,-1.0101093045917182,-0.9872018581592926,0.6414085001079161,0.22,6.19,9.35,-12.25,21.0,-40.375,1745522116.3075986
294,-0.4734205596034619,-0.5552328682906961,-0.0818123086872342,0.03,4.41,8.78,-10.0625,24.1875,-40.75,1745522116.3310409
295,-0.33597588100890846,-0.23234695667174513,-0.19525871006686563,0.13,1.93,8.19,-10.0625,24.1875,-40.75,1745522116.3514016
296,-0.7548549014875475,0.09817477042468103,0.006544984694978736,0.84,1.21,9.39,-12.0,26.0625,-40.0,1745522116.3678575
297,-1.4791665410651942,0.16253378659197193,0.07417649320975901,2.66,1.47,11.1,-12.0,26.0625,-40.0,1745522116.3908744
298,-2.0802143022207416,-0.2399827721492203,0.2007128639793479,3.5300000000000002,1.8800000000000001,11.58,-12.0,26.0625,-40.0,1745522116.4079416
299,-2.3856469213197493,-0.8606654873897037,0.34033920413889424,3.74,2.57,11.76,-9.75,26.375,-40.6875,1745522116.4314055
300,-2.3365595361074085,-1.3940817400304708,0.44833145160604343,3.69,2.89,11.42,-9.75,26.375,-40.6875,1745522116.4517422
301,-2.0104011321409683,-1.7311484518218756,0.5792311455056182,3.31,1.23,10.97,-12.25,30.375,-36.75,1745522116.4682307
302,-2.0180369476184437,-1.836959037724032,0.8868454261696187,3.5100000000000002,-0.55,10.4,-12.25,30.375,-36.75,1745522116.491254
303,-2.188206549687891,-1.732239282604372,0.9872018581592926,4.66,-0.93,9.97,-12.25,30.375,-36.75,1745522116.5083034
304,-2.194751534382869,-1.8533214994614786,0.7843073326149519,5.76,-1.47,9.46,-12.0,34.375,-32.75,1745522116.5315292
305,-2.1642082724729685,-2.1587541185604864,0.533416252640767,5.6000000000000005,-1.55,9.040000000000001,-12.0,34.375,-32.75,1745522116.5519753
306,-1.9885845164910392,-2.3463770131498767,0.2399827721492203,5.0,-1.67,8.26,-14.375,38.0,-28.25,1745522116.5685995
307,-1.626428696702216,-2.298380458720033,-0.08835729338221293,4.83,-2.12,7.88,-14.375,38.0,-28.25,1745522116.5916111
308,-1.3122694313432366,-2.0562160250058197,-0.3959715740462135,5.22,-3.35,6.97,-14.375,38.0,-28.25,1745522116.6086602
309,-1.1257373675363425,-1.7420567596468401,-0.8715737952146683,5.84,-3.88,6.65,-15.0625,42.25,-24.375,1745522116.6317146
310,-0.8857545953871222,-1.4169891864628963,-1.610066234964769,6.2,-4.37,6.47,-15.0625,42.25,-24.375,1745522116.652043
311,-0.7363107781851078,-1.2119129993535627,-2.420553506359636,6.16,-4.78,6.25,-18.6875,43.0,-20.0,1745522116.668963
312,-0.7668540400950086,-1.0253809355466685,-3.2604932088819067,5.47,-4.2,5.74,-18.6875,43.0,-20.0,1745522116.6916995
313,-0.8246680715673207,-0.7363107781851078,-3.733913768485369,4.1,-3.83,5.4,-18.6875,43.0,-20.0,1745522116.709023
314,-1.00029182754925,-0.14508049407202864,-3.863722631602447,3.81,-3.9,5.69,-22.375,42.5,-16.75,1745522116.7318435
315,-1.3559026626430948,0.5737769915931359,-3.7284596145728863,4.44,-1.04,6.3100000000000005,-22.375,42.5,-16.75,1745522116.7522056
316,-1.3035427850832648,1.251182907523435,-3.7590028764827874,4.89,-0.64,6.29,-30.25,38.875,-16.5,1745522116.769435
317,-1.038470904936626,1.6373370045271805,-4.006621464109482,5.28,0.47000000000000003,6.74,-30.25,38.875,-16.5,1745522116.7918997
318,-0.9719302272043423,1.662426112524599,-3.9204458322922626,4.01,1.26,6.890000000000001,-30.25,38.875,-16.5,1745522116.8094003
319,-1.3122694313432366,1.7038776822594641,-3.208133331322077,3.61,2.38,7.3,-33.1875,35.25,-17.875,1745522116.8319662
320,-1.660244450959606,1.882773930588883,-2.2591105505501603,3.09,3.25,8.56,-33.1875,35.25,-17.875,1745522116.8521993
321,-1.5500705419274639,2.1085759025656494,-1.5009831567151235,3.77,3.47,8.370000000000001,-37.5,30.5,-18.6875,1745522116.8699872
322,-1.2348204457859882,2.038762732485876,-1.2697270308258748,3.65,3.24,8.51,-37.5,30.5,-18.6875,1745522116.8919215
323,-0.9435686268594344,1.7409659288643438,-1.1224648751888533,3.46,3.27,8.67,-37.5,30.5,-18.6875,1745522116.910002
324,-0.6424993308904126,1.5315264186250241,-0.7733990247899872,1.73,6.45,9.89,-37.0,29.25,-19.875,1745522116.9320192
325,0.5225079448158024,1.545707218797478,-0.4788747135159442,4.36,-5.19,14.46,-37.0,29.25,-19.875,1745522116.9523826
326,0.16907877128695067,1.2566370614359172,-0.9893835197242855,5.13,2.86,13.790000000000001,-38.1875,28.75,-22.6875,1745522116.970409
327,-0.2083486794568231,0.35997415822383044,-0.3141592653589793,3.79,1.18,8.71,-38.1875,28.75,-22.6875,1745522116.992049
328,-0.16144295580947549,0.20180369476184434,-0.7755806863549802,2.5300000000000002,1.51,8.78,-38.1875,28.75,-22.6875,1745522117.0102768
329,-0.2912518189265537,0.3916082509162277,-1.459531586980258,4.49,2.56,10.1,-35.1875,27.6875,-26.6875,1745522117.0321655
330,-0.7853981633974483,-0.06544984694978735,-1.4955290028026411,3.44,2.33,8.82,-35.1875,27.6875,-26.6875,1745522117.0524175
331,-0.15271630954950383,-0.3370667117914049,-2.0202186091834364,3.7,3.15,9.35,-39.5625,26.5,-24.25,1745522117.070932
332,0.06872233929727672,-0.5486878835957173,-3.0554170217725733,3.87,1.56,10.22,-39.5625,26.5,-24.25,1745522117.09214
333,0.17016960206944712,-0.7275841319251362,-3.0543261909900767,3.81,0.9500000000000001,10.71,-38.75,22.1875,-25.875,1745522117.1107438
334,-0.18980455615438332,-0.25634523388666713,-2.4510967682695366,3.33,1.37,9.75,-38.75,22.1875,-25.875,1745522117.1322663
335,-0.284706834231575,0.17671458676442586,-1.9482237775386704,3.49,1.06,9.41,-38.75,22.1875,-25.875,1745522117.1525586
336,-0.1189005552921137,0.24652775684419906,-1.7016960206944713,3.2800000000000002,0.67,9.05,-43.5,16.75,-25.1875,1745522117.1712246
337,0.21162117180431245,-0.0545415391248228,-1.526072264712542,3.0500000000000003,0.55,8.8,-43.5,16.75,-25.1875,1745522117.1922061
338,0.48105637508093707,-0.2399827721492203,-1.1671889372712079,3.14,1.42,9.01,-41.25,12.75,-26.75,1745522117.2110558
339,0.5715953300281429,-0.18435040224190105,-1.3242685699506975,2.49,-0.15,8.97,-41.25,12.75,-26.75,1745522117.2324312
340,0.6261368691529657,0.10581058590215622,-1.1115565673638885,2.98,1.02,8.08,-41.25,12.75,-26.75,1745522117.2526274
341,0.6119560689805118,0.09381144729469522,-0.7766715171374766,3.13,1.69,8.39,-44.1875,9.375,-23.5,1745522117.271649
342,0.6697701004528239,-0.30870511144649704,-0.8944812416470939,3.29,2.15,8.61,-44.1875,9.375,-23.5,1745522117.2923687
343,0.39269908169872414,-0.26070855701665296,-0.7624907169650227,2.93,2.42,8.31,-42.375,5.6875,-25.5,1745522117.3117414
344,0.20507618710933373,-0.10471975511965978,-0.6370451769779303,2.73,1.95,8.74,-42.375,5.6875,-25.5,1745522117.3324492
345,-0.039269908169872414,0.12435470920459599,-0.32179508083645453,3.08,2.16,9.13,-42.375,5.6875,-25.5,1745522117.3527095
346,-0.09926560120717749,0.20507618710933373,-0.2476185876266955,2.99,3.72,8.96,-44.1875,4.6875,-23.0625,1745522117.3721433
347,-0.026179938779914945,0.16580627893946132,-0.5170537909033202,3.12,4.44,9.47,-44.1875,4.6875,-23.0625,1745522117.3924518
348,0.20289452554434081,0.03381575425739013,-0.8017606251348951,2.67,3.64,9.3,-42.375,4.6875,-24.25,1745522117.4118125
349,0.7853981633974483,0.2596177262341565,-0.9435686268594344,2.85,2.56,9.1,-42.375,4.6875,-24.25,1745522117.432518
350,0.7243116395776468,0.28688849579656794,-0.7755806863549802,2.61,2.86,7.84,-42.375,4.6875,-24.25,1745522117.4528651
351,0.5650503453331642,0.07090400086226964,-0.7461282552275759,2.0100000000000002,2.1,8.1,-42.6875,1.375,-21.5,1745522117.4724824
352,0.32179508083645453,-0.1712604328519436,-0.4723297288209654,1.1,2.7600000000000002,9.82,-42.6875,1.375,-21.5,1745522117.4925883
353,0.19853120241435498,-0.2694352032766246,-0.4385139745635753,2.21,3.22,9.040000000000001,-40.5625,-1.25,-24.25,1745522117.5122757
354,0.2999784651865254,-0.07417649320975901,-1.00029182754925,2.66,3.71,8.48,-40.5625,-1.25,-24.25,1745522117.5328016
355,0.2825251726665821,0.12871803233458182,-1.0602875205865552,2.08,3.66,8.61,-40.5625,-1.25,-24.25,1745522117.55305
356,0.07417649320975901,0.2814343418840856,-0.9522952731194061,2.04,3.65,7.98,-42.6875,-2.0,-21.5,1745522117.5727358
357,0.002181661564992912,0.1538071403320003,-0.7755806863549802,2.16,5.2,8.47,-42.6875,-2.0,-21.5,1745522117.592758
358,0.5868669609830933,0.12762720155208535,-0.9108437033845407,2.23,4.89,8.93,-38.75,-4.0625,-24.0,1745522117.6126103
359,1.1322823522313212,0.19853120241435498,-1.241365430480967,2.66,3.7800000000000002,8.77,-38.75,-4.0625,-24.0,1745522117.6328323
360,1.2664545384783854,0.02399827721492203,-1.2806353386508393,2.2800000000000002,4.24,8.36,-38.75,-4.0625,-24.0,1745522117.6532514
361,1.0722866591940161,-0.1810779098944117,-0.9479319499894202,1.1300000000000001,4.67,8.11,-40.5625,-6.0,-21.5,1745522117.6728137
362,0.3370667117914049,-0.22689280275926285,-0.4985096676008804,0.88,5.33,7.63,-40.5625,-6.0,-21.5,1745522117.6928692
363,-0.12762720155208535,-0.10581058590215622,-0.49960049838337683,1.47,5.23,7.59,-38.0625,-9.5625,-22.75,1745522117.7128136
364,0.13962634015954636,-0.14289883250703572,-0.7123125009701857,1.45,4.51,8.01,-38.0625,-9.5625,-22.75,1745522117.732902
365,0.5094179754258449,-0.25089107997418486,-0.7461282552275759,1.01,4.42,8.3,-38.0625,-9.5625,-22.75,1745522117.7535148
366,0.33161255787892263,-0.35452000431134817,-0.6523168079328807,1.54,4.11,8.11,-39.5,-8.875,-19.875,1745522117.7734559
367,-0.3534291735288517,-0.4854196982109229,-0.44505895925855404,1.52,4.39,7.68,-39.5,-8.875,-19.875,1745522117.7938547
368,-0.5214171140333059,-0.6370451769779303,-0.12326387842209953,1.16,5.8100000000000005,9.700000000000001,-37.25,-11.875,-21.875,1745522117.8132133
369,-0.136353847812057,-0.5301437602932776,0.2007128639793479,0.88,5.74,9.25,-37.25,-11.875,-21.875,1745522117.8342636
370,0.2792526803190927,-0.3097959422289935,0.23889194136672387,1.98,4.48,9.19,-37.25,-11.875,-21.875,1745522117.8536634
371,0.11780972450961724,-0.28579766501407144,0.22362031041177347,2.44,4.39,9.38,-39.0625,-10.75,-19.0625,1745522117.8752306
372,0.06981317007977318,-0.19744037163185854,0.17562375598192942,2.9,4.34,9.93,-39.0625,-10.75,-19.0625,1745522117.894866
373,0.10471975511965978,-0.050178215994836975,0.05890486225480862,2.6,4.71,10.55,-38.375,-11.5,-20.6875,1745522117.913562
374,0.050178215994836975,0.1461713248545251,-0.03490658503988659,2.84,5.44,8.96,-38.375,-11.5,-20.6875,1745522117.9350665
375,0.10144726277217041,0.21598449493429828,-0.04581489286485115,3.62,5.4,8.52,-38.375,-11.5,-20.6875,1745522117.9542596
376,0.05999569303730508,0.00545415391248228,-0.18762289458939044,4.09,5.13,8.2,-39.0625,-10.0,-19.0625,1745522117.9755795
377,-0.21162117180431245,-0.25634523388666713,-0.4188790204786391,3.25,5.43,7.3,-39.0625,-10.0,-19.0625,1745522117.995751
378,-0.7003133623627247,-0.2977968036215325,-0.6326818538479445,2.6,5.11,6.34,-36.5625,-11.5,-20.25,1745522118.0139809
379,-1.4148075248979033,0.07853981633974483,-0.7352199474026113,1.8,4.79,6.2700000000000005,-36.5625,-11.5,-20.25,1745522118.0361798
380,-2.0398535632683727,0.6130468997630083,-0.8323038870447959,1.78,4.78,6.25,-36.5625,-11.5,-20.25,1745522118.0547173
381,-2.4958208303518914,1.117010721276371,-0.8901179185171081,1.5,4.88,7.0200000000000005,-36.875,-10.375,-17.875,1745522118.0766764
382,-2.6376288320764307,1.5937037732273223,-0.9228428419920017,1.5,4.6000000000000005,7.49,-36.875,-10.375,-17.875,1745522118.0969622
383,-2.660536278508856,2.0082194705759755,-0.9108437033845407,1.3800000000000001,3.83,7.98,-35.875,-11.5,-21.5,1745522118.114329
384,-2.6681720939863314,2.294017135590047,-1.0199267816341864,1.86,3.61,8.52,-35.875,-11.5,-21.5,1745522118.1371303
385,-2.528545753826785,2.2362031041177346,-1.004655150679236,1.37,3.52,9.34,-35.875,-11.5,-21.5,1745522118.1549547
386,-2.1140300564781316,1.8576848225914646,-0.9250245035569946,0.76,2.87,10.120000000000001,-33.6875,-9.375,-27.0625,1745522118.17777
387,-1.6231562043547265,1.2500920767409385,-0.940296134511945,0.2,2.42,10.63,-33.6875,-9.375,-27.0625,1745522118.1977916
388,-1.0570150282390658,0.8835729338221293,-0.8344855486097889,-0.86,1.6400000000000001,10.25,-30.75,-8.6875,-33.0,1745522118.2147355
389,-0.56941366846315,0.6174102228929941,-0.7646723785300157,-0.63,1.06,9.71,-30.75,-8.6875,-33.0,1745522118.2381823
390,-0.28579766501407144,0.22143864884678055,-0.6086835766330224,-0.81,0.28,10.05,-30.75,-8.6875,-33.0,1745522118.255464
391,-0.06435901616729091,-0.34470252726888007,-0.30652344988150415,-1.25,0.38,10.36,-26.875,-8.6875,-35.0,1745522118.2785375
392,0.2476185876266955,-0.7417649320975901,-0.11453723216212788,-1.28,0.79,10.870000000000001,-26.875,-8.6875,-35.0,1745522118.2987812
393,0.6654067773228381,-0.980656873464314,-0.06217735460229799,-0.87,1.56,11.02,-28.0,-9.5,-34.5625,1745522118.3152156
394,1.2119129993535627,-1.2893619849108109,-0.11344640137963143,-0.72,1.53,10.59,-28.0,-9.5,-34.5625,1745522118.3387916
395,1.6569719586121165,-1.6787885742620456,-0.13962634015954636,-0.19,0.44,9.97,-28.0,-9.5,-34.5625,1745522118.355538
396,1.6024304194872938,-2.083486794568231,0.05345070834232634,-0.52,1.02,9.84,-28.25,-10.0625,-31.75,1745522118.378781
397,1.399535893942953,-2.31147042810999,0.2999784651865254,-1.57,2.07,9.76,-28.25,-10.0625,-31.75,1745522118.3991177
398,1.2304571226560024,-2.022400270748429,0.11999138607461016,-0.02,1.24,8.69,-32.6875,-13.0625,-28.5625,1745522118.4156847
399,0.954476934684399,-1.7267851286918898,0.34033920413889424,0.24,1.25,9.03,-32.6875,-13.0625,-28.5625,1745522118.4389653
400,0.6904958853202566,-1.2228213071785272,0.3752457891787809,1.16,1.85,8.42,-32.6875,-13.0625,-28.5625,1745522118.4558835
401,0.5530512067257032,-0.7875798249624412,0.433059820651093,2.84,1.6500000000000001,8.41,-32.6875,-14.5,-24.6875,1745522118.47931
402,0.26398104936414235,-0.8639379797371931,0.46796640569097964,2.42,3.1,8.85,-32.6875,-14.5,-24.6875,1745522118.4991326
403,0.23343778745424157,-1.2577278922184136,0.543233729683235,2.13,3.42,8.78,-36.25,-14.0625,-21.875,1745522118.51595
404,0.3839724354387525,-1.490074848890159,0.3763366199612773,0.87,2.71,9.36,-36.25,-14.0625,-21.875,1745522118.5391464
405,0.2596177262341565,-1.002473489114243,0.09708393964218458,1.3800000000000001,2.83,9.08,-36.25,-14.0625,-21.875,1745522118.5567
406,0.16580627893946132,-0.4145156973486533,0.19853120241435498,2.27,2.56,8.94,-35.5625,-13.0625,-20.25,1745522118.579092
407,0.08726646259971647,-0.24980024919168842,0.4079707126536745,2.91,3.24,9.02,-35.5625,-13.0625,-20.25,1745522118.5993812
408,0.14726215563702155,-0.2585268954516601,0.5203262832508095,3.73,3.72,9.040000000000001,-38.1875,-13.5,-18.375,1745522118.6163602
409,0.22252947962927702,-0.2301652951067522,0.47451139038595835,4.1,3.43,8.69,-38.1875,-13.5,-18.375,1745522118.639226
410,0.21380283336930536,-0.19634954084936207,0.14835298641951802,4.0,3.02,8.45,-38.1875,-13.5,-18.375,1745522118.656675
411,0.12435470920459599,-0.11780972450961724,-0.08508480103472356,3.58,3.0500000000000003,8.57,-36.0,-12.6875,-18.6875,1745522118.679181
412,0.039269908169872414,-0.08399397025222712,-0.016362461737446838,3.42,3.1,8.53,-36.0,-12.6875,-18.6875,1745522118.6994302
413,0.04908738521234052,-0.23671027980173096,0.20943951023931956,3.58,2.96,8.68,-38.1875,-12.25,-16.0,1745522118.7166517
414,0.12871803233458182,-0.5705044992456465,0.41996985126113556,3.43,3.5100000000000002,9.02,-38.1875,-12.25,-16.0,1745522118.7393966
415,0.24434609527920614,-0.6185010536754906,0.4046982203061852,3.27,3.31,8.72,-38.1875,-12.25,-16.0,1745522118.7572792
416,0.2901609881440573,-0.40033489717619936,0.27598018797160334,2.87,2.74,7.98,-37.0625,-12.0,-18.375,1745522118.779252
417,0.09599310885968812,-0.25416357232167425,0.3294308963139297,3.11,3.15,8.5,-37.0625,-12.0,-18.375,1745522118.7993696
418,0.02399827721492203,-0.3076142806640006,0.459239759431008,3.16,3.25,8.75,-39.1875,-12.0,-15.1875,1745522118.8175826
419,0.11780972450961724,-0.2792526803190927,0.37306412761378793,3.3000000000000003,3.24,8.59,-39.1875,-12.0,-15.1875,1745522118.8393466
420,0.1930770485018727,-0.14289883250703572,0.1734420944169365,3.19,3.43,8.41,-39.1875,-12.0,-15.1875,1745522118.857602
421,0.19416787928436915,0.08617563181722002,-0.032724923474893676,3.91,3.65,8.370000000000001,-38.5,-10.875,-17.1875,1745522118.8794289
422,0.20507618710933373,0.3425208657038872,-0.23889194136672387,4.21,2.64,7.97,-38.5,-10.875,-17.1875,1745522118.899456
423,0.11671889372712078,0.3097959422289935,-0.3327033886614191,3.99,2.63,7.95,-40.25,-11.5625,-13.875,1745522118.918033
424,-0.06435901616729091,0.1189005552921137,-0.24652775684419906,3.1,3.08,8.620000000000001,-40.25,-11.5625,-13.875,1745522118.9401672
425,-0.10581058590215622,0.1407171709420428,-0.18544123302439752,3.2,3.14,8.73,-38.5,-12.0,-16.0,1745522118.957798
426,-0.11126473981463851,0.3687008044838021,-0.20616701789183017,3.16,3.19,8.86,-38.5,-12.0,-16.0,1745522118.9794858
427,-0.1308996938995747,0.6566801310628665,-0.2792526803190927,3.04,2.97,8.67,-38.5,-12.0,-16.0,1745522118.9996903
428,-0.1832595714594046,0.8453938564347534,-0.2585268954516601,3.1,2.99,8.78,-40.0,-11.5625,-14.75,1745522119.0179203
429,-0.18871372537188688,0.7101308394051928,-0.07308566242726255,2.63,3.0700000000000003,9.25,-40.0,-11.5625,-14.75,1745522119.0397694
430,-0.11126473981463851,0.6305001922829515,0.031634092692397225,2.5300000000000002,3.13,9.290000000000001,-37.375,-12.6875,-19.0625,1745522119.0581996
431,-0.05235987755982989,0.7733990247899872,0.037088246604879506,2.31,2.92,9.02,-37.375,-12.6875,-19.0625,1745522119.0796566
432,-0.09599310885968812,0.9555677654668955,0.04363323129985824,2.35,3.0500000000000003,9.13,-37.375,-12.6875,-19.0625,1745522119.0996807
433,-0.10253809355466686,1.0231992739816758,0.08399397025222712,2.36,3.0500000000000003,9.01,-37.75,-10.875,-18.6875,1745522119.1183786
434,-0.08726646259971647,0.9937468428542714,0.15707963267948966,1.82,2.8000000000000003,8.88,-37.75,-10.875,-18.6875,1745522119.1397939
435,-0.20180369476184434,0.9730210579868387,0.21925698728178766,1.71,2.95,8.92,-37.0625,-12.25,-20.6875,1745522119.158651
436,-0.2617993877991494,1.038470904936626,0.20180369476184434,2.16,3.19,9.1,-37.0625,-12.25,-20.6875,1745522119.1796024
437,-0.2530727415391778,1.0177451200691934,0.14726215563702155,1.95,3.18,9.13,-37.0625,-12.25,-20.6875,1745522119.1997519
438,-0.18435040224190105,0.9413869652944415,0.02945243112740431,1.77,3.17,9.07,-36.0,-10.875,-22.6875,1745522119.21865
439,-0.14289883250703572,0.9359328113819593,-0.07635815477475191,1.21,2.81,9.09,-36.0,-10.875,-22.6875,1745522119.2397892
440,-0.19962203319685143,0.8377580409572782,-0.026179938779914945,0.9,2.94,9.32,-36.0,-11.5625,-23.5,1745522119.2589676
441,-0.1832595714594046,0.7428557628800865,0.037088246604879506,1.19,3.0,9.36,-36.0,-11.5625,-23.5,1745522119.2796917
442,-0.1341721862470641,0.7035858547102141,0.05672320068981571,1.26,3.06,9.39,-36.0,-11.5625,-23.5,1745522119.2999313
443,-0.05781403147231216,0.6850417314077744,-0.003272492347489368,1.44,2.92,9.13,-32.6875,-10.0625,-25.0,1745522119.3192816
444,-0.030543261909900768,0.6784967467127956,-0.14180800172453928,1.59,2.79,9.17,-32.6875,-10.0625,-25.0,1745522119.3404367
445,-0.04581489286485115,0.5148721293383273,-0.20725784867432664,0.9,2.88,9.38,-33.75,-11.5625,-25.0625,1745522119.359381
446,-0.07635815477475191,0.21925698728178766,-0.21925698728178766,0.54,2.82,9.34,-33.75,-11.5625,-25.0625,1745522119.3799486
447,-0.08617563181722002,0.25089107997418486,-0.2628902185816459,0.43,2.7800000000000002,9.4,-33.75,-11.5625,-25.0625,1745522119.4002109
448,-0.09708393964218458,0.28688849579656794,-0.2825251726665821,0.28,2.83,9.5,-32.25,-11.25,-27.0625,1745522119.4196477
449,-0.09708393964218458,0.3817907738737596,-0.2585268954516601,0.17,2.67,9.24,-32.25,-11.25,-27.0625,1745522119.44128
450,-0.10253809355466686,0.3490658503988659,-0.20616701789183017,0.5,2.72,9.43,-34.1875,-12.0,-26.1875,1745522119.4597564
451,-0.06544984694978735,0.09708393964218458,-0.11344640137963143,0.54,2.8000000000000003,9.540000000000001,-34.1875,-12.0,-26.1875,1745522119.4800858
452,-0.016362461737446838,-0.08617563181722002,-0.14508049407202864,0.36,2.5500000000000003,9.42,-34.1875,-12.0,-26.1875,1745522119.5002337
453,-0.02945243112740431,-0.13526301702956053,-0.1908953869368798,0.19,2.45,9.36,-29.75,-11.25,-28.0625,1745522119.5203233
454,-0.08835729338221293,-0.11126473981463851,-0.16798794050445423,0.01,2.43,9.3,-29.75,-11.25,-28.0625,1745522119.5408661
455,-0.14726215563702155,-0.10035643198967395,-0.05890486225480862,0.3,2.5100000000000002,9.52,-33.375,-11.5625,-26.6875,1745522119.5603242
456,-0.13853550937704992,-0.12544553998709243,-0.05235987755982989,0.97,2.79,9.73,-33.375,-11.5625,-26.6875,1745522119.5801685
457,-0.04363323129985824,-0.2781618495365963,-0.07417649320975901,0.81,2.73,9.86,-33.375,-11.5625,-26.6875,1745522119.600268
458,0.06326818538479445,-0.4145156973486533,-0.10035643198967395,0.45,2.6,9.83,-31.25,-12.25,-28.5,1745522119.6200123
459,0.11126473981463851,-0.43960480534607177,-0.07963064712224129,0.13,2.49,9.68,-31.25,-12.25,-28.5,1745522119.6403759
460,0.09272061651219876,-0.28907015736156083,0.011999138607461015,0.17,2.44,9.53,-33.375,-11.5625,-26.5625,1745522119.660429
461,0.06763150851478027,-0.2279836335417593,0.04254240051736178,0.3,2.46,9.28,-33.375,-11.5625,-26.5625,1745522119.6804583
462,-0.031634092692397225,-0.055632369907319255,0.12980886311707826,0.31,2.48,9.24,-33.375,-11.5625,-26.5625,1745522119.700477
463,-0.06654067773228381,-0.022907446432425576,0.1559888018969932,0.49,2.67,9.33,-31.5625,-12.0,-28.5,1745522119.7204978
464,-0.05890486225480862,-0.011999138607461015,0.14944381720201447,0.8,2.6,9.39,-31.5625,-12.0,-28.5,1745522119.7427661
465,-0.03490658503988659,-0.05235987755982989,0.10581058590215622,0.6,2.52,9.47,-33.0625,-11.5625,-24.5625,1745522119.7606554
466,-0.02945243112740431,-0.032724923474893676,0.07308566242726255,0.47000000000000003,2.49,9.290000000000001,-33.0625,-11.5625,-24.5625,1745522119.7807474
467,-0.08399397025222712,0.008726646259971648,0.06544984694978735,0.45,2.43,9.16,-33.0625,-11.5625,-24.5625,1745522119.801262
468,-0.10035643198967395,-0.037088246604879506,0.10253809355466686,0.59,2.54,9.34,-32.0,-12.0,-26.5625,1745522119.8210757
469,-0.07417649320975901,-0.09053895494720585,0.10799224746714914,0.7000000000000001,2.5300000000000002,9.39,-32.0,-12.0,-26.5625,1745522119.8431754
470,-0.03490658503988659,-0.1308996938995747,0.09490227807719166,0.79,2.57,9.5,-33.75,-10.875,-26.0625,1745522119.8611453
471,-0.02399827721492203,-0.13962634015954636,0.07417649320975901,0.87,2.5100000000000002,9.34,-33.75,-10.875,-26.0625,1745522119.8811758
472,-0.05126904677733343,-0.1308996938995747,0.06326818538479445,0.88,2.5300000000000002,9.32,-33.75,-10.875,-26.0625,1745522119.9012923
473,-0.09926560120717749,-0.09381144729469522,0.04581489286485115,0.81,2.4,9.370000000000001,-32.6875,-11.5625,-27.75,1745522119.921231
474,-0.1712604328519436,-0.04799655442984406,0.032724923474893676,0.8300000000000001,2.38,9.53,-32.6875,-11.5625,-27.75,1745522119.942913
475,-0.16471544815696484,-0.04690572364734761,0.006544984694978736,0.9,2.5,9.73,-34.1875,-10.5,-25.375,1745522119.9616694
476,-0.08508480103472356,-0.04036073895236887,-0.039269908169872414,0.77,2.5300000000000002,9.78,-34.1875,-10.5,-25.375,1745522119.983387
477,-0.0272707695624114,-0.05126904677733343,-0.04036073895236887,0.71,2.42,9.73,-34.1875,-10.5,-25.375,1745522120.001531
478,-0.001090830782496456,-0.05672320068981571,-0.004363323129985824,0.64,2.52,9.71,-33.0625,-11.25,-27.0,1745522120.021696
479,0.002181661564992912,-0.018544123302439753,0.019634954084936207,0.86,2.52,9.620000000000001,-33.0625,-11.25,-27.0,1745522120.043623
480,0.018544123302439753,0.022907446432425576,0.011999138607461015,1.02,2.67,9.68,-33.75,-10.5,-25.75,1745522120.062019
481,0.08617563181722002,0.011999138607461015,-0.028361600344907856,1.29,2.66,9.57,-33.75,-10.5,-25.75,1745522120.084226
482,0.12435470920459599,-0.032724923474893676,-0.07853981633974483,1.18,2.59,9.42,-33.75,-10.5,-25.75,1745522120.1021185
483,0.1407171709420428,-0.04690572364734761,-0.10144726277217041,0.86,2.38,9.16,-34.5,-11.5625,-27.0,1745522120.1239913
484,0.09381144729469522,-0.030543261909900768,-0.07526732399225546,0.65,2.27,9.05,-34.5,-11.5625,-27.0,1745522120.1456566
485,0.02181661564992912,0.038179077387375956,-0.04036073895236887,0.55,2.2800000000000002,9.15,-33.0625,-10.0625,-25.75,1745522120.162349
486,-0.015271630954950384,0.0916297857297023,-0.008726646259971648,0.59,2.29,9.21,-33.0625,-10.0625,-25.75,1745522120.185255
487,-0.031634092692397225,0.10471975511965978,-0.017453292519943295,0.71,2.33,9.3,-33.0625,-10.0625,-25.75,1745522120.202314
488,-0.028361600344907856,0.04799655442984406,-0.03599741582238305,0.9400000000000001,2.49,9.58,-32.6875,-12.25,-25.0,1745522120.2248464
489,0.04363323129985824,-0.026179938779914945,-0.06544984694978735,1.02,2.5,9.74,-32.6875,-12.25,-25.0,1745522120.2459538
490,0.09053895494720585,-0.06981317007977318,-0.09599310885968812,0.97,2.48,9.66,-32.6875,-10.0625,-27.0,1745522120.2630055
491,0.09708393964218458,-0.09381144729469522,-0.10690141668465268,1.0,2.52,9.61,-32.6875,-10.0625,-27.0,1745522120.2851915
492,0.07963064712224129,-0.10690141668465268,-0.10144726277217041,0.81,2.5500000000000003,9.5,-32.6875,-10.0625,-27.0,1745522120.3029432
493,0.08290313946973066,-0.11671889372712078,-0.09599310885968812,0.9500000000000001,2.73,9.52,-35.1875,-11.25,-25.75,1745522120.3247366
494,0.1308996938995747,-0.19634954084936207,-0.09708393964218458,0.9400000000000001,2.82,9.5,-35.1875,-11.25,-25.75,1745522120.3465848
495,0.19525871006686563,-0.28579766501407144,-0.10471975511965978,1.01,2.77,9.35,-32.0,-10.875,-27.0,1745522120.363483
496,0.23561944901923448,-0.35779249665883756,-0.1189005552921137,1.09,2.84,9.26,-32.0,-10.875,-27.0,1745522120.3864079
497,0.2301652951067522,-0.4036073895236887,-0.12544553998709243,0.96,2.71,9.09,-32.0,-10.875,-27.0,1745522120.4053485
498,0.18980455615438332,-0.38069994309126315,-0.11780972450961724,0.89,2.79,9.05,-34.5,-12.0,-24.1875,1745522120.4263763
499,0.13962634015954636,-0.37742745074377376,-0.07635815477475191,1.08,2.79,9.09,-34.5,-12.0,-24.1875,1745522120.4477205
500,0.11453723216212788,-0.38288160465625604,-0.03381575425739013,1.11,2.75,9.16,-33.375,-13.0625,-25.375,1745522120.465166
501,0.09708393964218458,-0.3719732968312915,-0.020725784867432664,1.44,2.85,9.27,-33.375,-13.0625,-25.375,1745522120.4879372
502,0.10799224746714914,-0.3687008044838021,-0.05235987755982989,1.6400000000000001,2.77,9.35,-33.375,-13.0625,-25.375,1745522120.5053322
503,0.11562806294462433,-0.4428772976935611,-0.09490227807719166,1.43,2.7800000000000002,9.47,-36.25,-12.25,-23.0,1745522120.5272944
504,0.1308996938995747,-0.43196898986859655,-0.11126473981463851,1.29,2.7600000000000002,9.49,-36.25,-12.25,-23.0,1745522120.5474792
505,0.1341721862470641,-0.3436116964863836,-0.0818123086872342,1.29,2.72,9.44,-33.375,-12.6875,-23.375,1745522120.5660331
506,0.11562806294462433,-0.26398104936414235,-0.04036073895236887,1.54,2.65,9.22,-33.375,-12.6875,-23.375,1745522120.5872803
507,0.08290313946973066,-0.27707101875409984,0.004363323129985824,1.55,2.65,9.26,-34.875,-13.5,-21.0,1745522120.6062605
508,0.06763150851478027,-0.25089107997418486,0.032724923474893676,1.48,2.93,9.28,-34.875,-13.5,-21.0,1745522120.6272724
509,0.06763150851478027,-0.1341721862470641,0.04363323129985824,1.6400000000000001,3.0300000000000002,9.15,-34.875,-13.5,-21.0,1745522120.6478918
510,0.0545415391248228,-0.06544984694978735,0.04690572364734761,1.76,3.09,9.11,-33.75,-13.0625,-24.1875,1745522120.6662776
511,0.08944812416470939,-0.10690141668465268,0.01090830782496456,2.21,3.06,9.0,-33.75,-13.0625,-24.1875,1745522120.6877244
512,0.08944812416470939,-0.21380283336930536,-0.050178215994836975,2.22,3.11,8.97,-36.0,-12.0,-20.1875,1745522120.706456
513,0.04799655442984406,-0.25743606466916363,-0.08726646259971647,1.92,3.09,9.040000000000001,-36.0,-12.0,-20.1875,1745522120.727582
514,0.016362461737446838,-0.20943951023931956,-0.0916297857297023,1.78,2.95,8.98,-36.0,-12.0,-20.1875,1745522120.7481215
515,-0.0272707695624114,-0.16580627893946132,-0.05345070834232634,1.7,3.0,9.01,-34.875,-13.75,-22.1875,1745522120.766861
516,-0.05345070834232634,-0.11453723216212788,-0.002181661564992912,1.69,3.0700000000000003,9.1,-34.875,-13.75,-22.1875,1745522120.7876987
517,-0.05999569303730508,0.013089969389957472,0.008726646259971648,1.87,3.04,9.07,-35.5625,-12.25,-21.0,1745522120.8068957
518,-0.08726646259971647,0.006544984694978736,0.00545415391248228,2.2600000000000002,3.0,9.02,-35.5625,-12.25,-21.0,1745522120.8278968
519,-0.10362892433716332,-0.11562806294462433,-0.018544123302439753,2.3000000000000003,3.18,9.3,-35.5625,-12.25,-21.0,1745522120.8490095
520,-0.039269908169872414,-0.210530341021816,-0.06326818538479445,2.29,2.98,9.16,-36.0,-13.75,-20.5625,1745522120.8673282
521,0.004363323129985824,-0.31525009614147576,-0.10253809355466686,1.99,3.04,9.07,-36.0,-13.75,-20.5625,1745522120.8878574
522,0.00545415391248228,-0.2999784651865254,-0.10581058590215622,1.8900000000000001,2.87,8.93,-35.5625,-12.25,-19.75,1745522120.907397
523,-0.06326818538479445,-0.24216443371421323,-0.10362892433716332,2.0,2.9,8.870000000000001,-35.5625,-12.25,-19.75,1745522120.9281187
524,-0.09272061651219876,-0.3174317577064687,-0.08072147790473774,2.21,2.92,9.09,-35.5625,-12.25,-19.75,1745522120.94885
525,-0.07744898555724837,-0.36106498900632694,-0.07635815477475191,2.02,3.0500000000000003,9.19,-36.6875,-13.5,-21.375,1745522120.9677224
526,0.017453292519943295,-0.35452000431134817,-0.07417649320975901,2.16,2.89,8.96,-36.6875,-13.5,-21.375,1745522120.9879594
527,0.002181661564992912,-0.4079707126536745,-0.06435901616729091,2.36,2.88,8.94,-34.875,-13.0625,-21.0,1745522121.0093827
528,-0.006544984694978736,-0.4341506514335895,-0.07308566242726255,2.38,2.94,8.98,-34.875,-13.0625,-21.0,1745522121.0289485
529,-0.022907446432425576,-0.3937899124812206,-0.0719948316447661,2.34,2.91,8.94,-34.875,-13.0625,-21.0,1745522121.0491166
530,-0.04145156973486533,-0.32834006553143325,-0.04363323129985824,2.29,2.9,8.96,-36.6875,-13.5,-18.25,1745522121.0689235
531,-0.03599741582238305,-0.284706834231575,-0.022907446432425576,2.5300000000000002,2.96,9.040000000000001,-36.6875,-13.5,-18.25,1745522121.0958664
532,-0.03381575425739013,-0.30325095753401476,0.014180800172453928,2.7,2.83,8.950000000000001,-34.5,-12.25,-19.5,1745522121.1125448
533,-0.039269908169872414,-0.27707101875409984,0.026179938779914945,2.67,3.0100000000000002,9.02,-34.5,-12.25,-19.5,1745522121.135546
534,-0.030543261909900768,-0.19744037163185854,0.02181661564992912,2.82,2.88,8.98,-34.5,-12.25,-19.5,1745522121.1527216
535,-0.05999569303730508,-0.1505346479845109,0.025089107997418487,2.67,2.86,8.91,-37.375,-13.5,-17.75,1745522121.1747413
536,-0.07308566242726255,-0.07635815477475191,0.02399827721492203,3.22,3.0500000000000003,8.97,-37.375,-13.5,-17.75,1745522121.1968482
537,-0.03381575425739013,-0.12871803233458182,-0.025089107997418487,3.29,3.0500000000000003,9.0,-35.25,-12.6875,-18.5625,1745522121.2129776
538,0.014180800172453928,-0.23343778745424157,-0.07308566242726255,2.99,3.0500000000000003,8.92,-35.25,-12.6875,-18.5625,1745522121.2363906
539,0.02945243112740431,-0.22580197197676638,-0.09926560120717749,2.81,2.91,8.8,-35.25,-12.6875,-18.5625,1745522121.2531724
540,-0.017453292519943295,-0.12980886311707826,-0.09926560120717749,2.68,2.84,8.68,-37.375,-13.0625,-16.5625,1745522121.2757483
541,-0.07744898555724837,-0.014180800172453928,-0.08399397025222712,2.61,2.9,8.8,-37.375,-13.0625,-16.5625,1745522121.2960353
542,-0.07744898555724837,0.037088246604879506,-0.06654067773228381,2.91,2.94,8.85,-36.0,-13.5,-18.5625,1745522121.31333
543,-0.04690572364734761,-0.014180800172453928,-0.06326818538479445,3.14,3.1,8.93,-36.0,-13.5,-18.5625,1745522121.3356938
544,0.002181661564992912,-0.07744898555724837,-0.08617563181722002,3.06,3.0,8.88,-36.0,-13.5,-18.5625,1745522121.3539271
545,-0.007635815477475192,-0.0719948316447661,-0.09490227807719166,2.74,2.83,8.72,-38.1875,-13.0625,-16.25,1745522121.3759737
546,-0.06326818538479445,0.013089969389957472,-0.07526732399225546,2.77,2.96,8.81,-38.1875,-13.0625,-16.25,1745522121.39593
547,-0.08290313946973066,0.08072147790473774,-0.07526732399225546,2.99,3.06,8.83,-36.0,-12.6875,-19.5,1745522121.413913
548,-0.07090400086226964,0.04363323129985824,-0.09381144729469522,2.96,2.96,8.8,-36.0,-12.6875,-19.5,1745522121.4360056
549,-0.06654067773228381,-0.03599741582238305,-0.10035643198967395,2.87,2.99,8.85,-36.0,-12.6875,-19.5,1745522121.4542646
550,-0.05999569303730508,-0.025089107997418487,-0.10144726277217041,2.7800000000000002,2.98,8.85,-36.25,-13.5,-15.0625,1745522121.475986
551,-0.03599741582238305,0.008726646259971648,-0.08617563181722002,2.48,1.99,8.88,-36.25,-13.5,-15.0625,1745522121.4963028
552,-0.09817477042468103,0.011999138607461015,0.011999138607461015,2.73,3.16,8.99,-36.0,-14.0625,-19.0,1745522121.5144355
553,-0.09272061651219876,0.09272061651219876,-0.03381575425739013,2.85,2.67,8.96,-36.0,-14.0625,-19.0,1745522121.5360107
554,-0.09381144729469522,0.0719948316447661,-0.06763150851478027,2.98,2.82,8.84,-36.6875,-13.5,-16.5625,1745522121.5547452
555,-0.0719948316447661,-0.008726646259971648,-0.06872233929727672,2.77,2.92,8.89,-36.6875,-13.5,-16.5625,1745522121.5763147
556,-0.04363323129985824,-0.02945243112740431,-0.06217735460229799,2.57,2.7600000000000002,8.93,-36.6875,-13.5,-16.5625,1745522121.5963936
557,-0.06654067773228381,0.016362461737446838,-0.028361600344907856,2.5500000000000003,2.74,8.92,-36.25,-14.0625,-19.0,1745522121.6148198
558,-0.07853981633974483,0.06981317007977318,-0.016362461737446838,2.7800000000000002,2.77,8.94,-36.25,-14.0625,-19.0,1745522121.636078
559,-0.07526732399225546,0.05345070834232634,-0.015271630954950384,2.79,2.74,8.98,-36.0,-13.5,-17.5,1745522121.6550581
560,-0.05126904677733343,0.007635815477475192,-0.007635815477475192,2.69,2.79,9.02,-36.0,-13.5,-17.5,1745522121.6764214
561,-0.030543261909900768,-0.020725784867432664,-0.003272492347489368,2.7,2.77,9.03,-36.0,-13.5,-17.5,1745522121.6963656
562,-0.00545415391248228,-0.00545415391248228,0.006544984694978736,2.84,2.79,9.0,-37.375,-13.75,-17.75,1745522121.7161515
563,0.01090830782496456,-0.016362461737446838,0.014180800172453928,2.82,2.73,9.02,-37.375,-13.75,-17.75,1745522121.7362373
564,0.016362461737446838,-0.030543261909900768,0.020725784867432664,2.7600000000000002,2.75,9.040000000000001,-35.5625,-13.5,-19.5,1745522121.7563624
565,0.019634954084936207,-0.002181661564992912,0.02399827721492203,2.87,2.7800000000000002,9.01,-35.5625,-13.5,-19.5,1745522121.7765236
566,0.01090830782496456,0.01090830782496456,0.019634954084936207,2.97,2.7600000000000002,8.89,-35.5625,-13.5,-19.5,1745522121.796937
567,0.003272492347489368,0.004363323129985824,0.008726646259971648,3.02,2.82,8.97,-36.6875,-14.0625,-17.75,1745522121.8164897
568,0.015271630954950384,-0.030543261909900768,-0.018544123302439753,2.87,2.79,8.9,-36.6875,-14.0625,-17.75,1745522121.836374
569,0.014180800172453928,-0.05890486225480862,-0.017453292519943295,2.7,2.81,8.89,-34.875,-13.5,-19.5,1745522121.8559241
570,0.009817477042468103,-0.016362461737446838,0.004363323129985824,2.72,2.75,8.82,-34.875,-13.5,-19.5,1745522121.8765047
571,-0.01090830782496456,-0.00545415391248228,0.014180800172453928,2.82,2.7800000000000002,8.85,-34.875,-13.5,-19.5,1745522121.8966238
572,-0.017453292519943295,0.003272492347489368,0.011999138607461015,2.79,2.86,8.9,-37.0625,-14.5,-16.5625,1745522121.9164884
573,-0.002181661564992912,0.002181661564992912,0.003272492347489368,2.79,2.84,8.92,-37.0625,-14.5,-16.5625,1745522121.9363468
574,0.00545415391248228,-0.007635815477475192,0.001090830782496456,2.8000000000000003,2.81,8.85,-35.5625,-13.75,-18.5625,1745522121.956708
575,0.001090830782496456,-0.009817477042468103,0.008726646259971648,2.72,2.74,8.88,-35.5625,-13.75,-18.5625,1745522121.9767342
576,-0.006544984694978736,0.00545415391248228,0.017453292519943295,2.71,2.73,8.9,-35.5625,-13.75,-18.5625,1745522121.996881
577,-0.025089107997418487,0.037088246604879506,0.028361600344907856,2.84,2.8000000000000003,8.950000000000001,-37.75,-13.0625,-17.0625,1745522122.0162516
578,-0.020725784867432664,0.05235987755982989,0.028361600344907856,2.85,2.84,8.950000000000001,-37.75,-13.0625,-17.0625,1745522122.036566
579,-0.006544984694978736,0.04799655442984406,0.017453292519943295,2.87,2.72,8.92,-34.875,-14.0625,-18.25,1745522122.0566523
580,-0.018544123302439753,0.03599741582238305,0.016362461737446838,2.86,2.64,8.9,-34.875,-14.0625,-18.25,1745522122.0767553
581,-0.019634954084936207,0.04908738521234052,0.019634954084936207,2.63,2.79,8.99,-34.875,-14.0625,-18.25,1745522122.0968573
582,-0.022907446432425576,0.08835729338221293,0.04908738521234052,2.54,2.63,8.93,-37.0625,-13.5,-16.25,1745522122.1169288
583,-0.04363323129985824,0.12217304763960307,0.07853981633974483,2.73,2.73,9.0,-37.0625,-13.5,-16.25,1745522122.1368237
584,-0.030543261909900768,0.11235557059713497,0.06981317007977318,2.81,2.81,9.040000000000001,-35.5625,-14.0625,-18.5625,1745522122.1569314
585,-0.003272492347489368,0.08617563181722002,0.061086523819801536,2.79,2.75,8.950000000000001,-35.5625,-14.0625,-18.5625,1745522122.17695
586,0.0,0.0719948316447661,0.05781403147231216,2.67,2.65,8.93,-35.5625,-14.0625,-18.5625,1745522122.1971104
587,-0.022907446432425576,0.07963064712224129,0.06763150851478027,2.69,2.67,8.99,-36.6875,-13.5,-17.5,1745522122.2169878
588,-0.03599741582238305,0.09053895494720585,0.07417649320975901,2.64,2.64,8.93,-36.6875,-13.5,-17.5,1745522122.237
589,-0.06435901616729091,0.12980886311707826,0.08290313946973066,2.65,2.68,9.02,-36.0,-13.75,-19.0,1745522122.257267
590,-0.050178215994836975,0.1461713248545251,0.06217735460229799,2.93,2.77,9.14,-36.0,-13.75,-19.0,1745522122.2775137
591,-0.018544123302439753,0.06763150851478027,0.032724923474893676,2.83,2.7600000000000002,9.13,-36.0,-13.75,-19.0,1745522122.2975476
592,0.011999138607461015,0.031634092692397225,0.01090830782496456,2.5500000000000003,2.77,9.040000000000001,-35.25,-12.6875,-18.5625,1745522122.3182657
593,0.011999138607461015,0.07744898555724837,0.016362461737446838,2.41,2.5100000000000002,8.93,-35.25,-12.6875,-18.5625,1745522122.3391876
594,-0.04581489286485115,0.14508049407202864,0.04581489286485115,2.35,2.57,8.88,-36.25,-13.75,-19.5,1745522122.3579843
595,-0.08290313946973066,0.20180369476184434,0.07635815477475191,2.5500000000000003,2.63,8.88,-36.25,-13.75,-19.5,1745522122.377837
596,-0.09490227807719166,0.19525871006686563,0.09708393964218458,2.52,2.64,8.98,-36.25,-13.75,-19.5,1745522122.3983495
597,-0.09708393964218458,0.21271200258680892,0.09490227807719166,2.48,2.74,9.040000000000001,-35.25,-12.0,-19.5,1745522122.4181592
598,-0.08290313946973066,0.21162117180431245,0.06435901616729091,2.66,2.67,8.99,-35.25,-12.0,-19.5,1745522122.4392548
599,-0.08072147790473774,0.12435470920459599,0.04581489286485115,2.62,2.62,9.040000000000001,-37.75,-13.0625,-18.5625,1745522122.4583821
600,-0.07963064712224129,0.08617563181722002,0.04145156973486533,2.21,2.5300000000000002,9.07,-37.75,-13.0625,-18.5625,1745522122.4798021
601,-0.09490227807719166,0.16689710972195776,0.06435901616729091,2.16,2.42,9.03,-37.75,-13.0625,-18.5625,1745522122.4985392
602,-0.13962634015954636,0.25416357232167425,0.09053895494720585,2.49,2.5100000000000002,9.13,-35.5625,-13.0625,-20.5625,1745522122.5206594
603,-0.13853550937704992,0.2454369260617026,0.08726646259971647,2.62,2.64,9.19,-35.5625,-13.0625,-20.5625,1745522122.5415416
604,-0.10035643198967395,0.16253378659197193,0.05672320068981571,2.58,2.49,9.25,-36.25,-12.25,-19.0,1745522122.5588355
605,-0.0818123086872342,0.11235557059713497,0.030543261909900768,2.43,2.5,9.23,-36.25,-12.25,-19.0,1745522122.580623
606,-0.0719948316447661,0.1341721862470641,0.020725784867432664,2.21,2.41,9.31,-36.25,-12.25,-19.0,1745522122.5989811
607,-0.07853981633974483,0.18980455615438332,0.025089107997418487,2.19,2.2800000000000002,9.21,-35.5625,-12.0,-21.0,1745522122.6217759
608,-0.13199052468207118,0.22907446432425577,0.05235987755982989,2.02,2.2600000000000002,9.08,-35.5625,-12.0,-21.0,1745522122.642295
609,-0.18544123302439752,0.2999784651865254,0.08617563181722002,2.02,2.32,9.15,-36.25,-11.5625,-19.5,1745522122.6595676
610,-0.20180369476184434,0.31525009614147576,0.10253809355466686,2.21,2.36,9.24,-36.25,-11.5625,-19.5,1745522122.681195
611,-0.1712604328519436,0.2945243112740431,0.06654067773228381,2.25,2.41,9.3,-36.25,-11.5625,-19.5,1745522122.6993334
612,-0.1439896632895322,0.25089107997418486,0.030543261909900768,2.12,2.31,9.28,-35.5625,-11.25,-23.0,1745522122.7193677
613,-0.1439896632895322,0.25743606466916363,0.009817477042468103,1.81,2.21,9.33,-35.5625,-11.25,-23.0,1745522122.7431633
614,-0.14726215563702155,0.3108867730114899,0.013089969389957472,1.77,2.18,9.42,-36.25,-11.25,-21.0,1745522122.760583
615,-0.14835298641951802,0.40906154343617096,0.028361600344907856,1.7,2.21,9.59,-36.25,-11.25,-21.0,1745522122.7828362
616,-0.1461713248545251,0.5617778529856748,0.013089969389957472,1.8,2.19,9.540000000000001,-36.25,-11.25,-21.0,1745522122.7998948
617,-0.13199052468207118,0.6446809924554054,-0.038179077387375956,2.08,2.24,9.540000000000001,-35.5625,-11.5625,-23.75,1745522122.822552
618,-0.0916297857297023,0.6108652381980153,-0.12435470920459599,2.11,2.2,9.52,-35.5625,-11.5625,-23.75,1745522122.8435128
619,-0.07526732399225546,0.5050546522958591,-0.18653206380689397,1.77,2.12,9.48,-35.1875,-10.875,-23.375,1745522122.8606403
620,-0.05672320068981571,0.495237175253391,-0.18544123302439752,0.87,2.09,9.55,-35.1875,-10.875,-23.375,1745522122.8833067
621,-0.07635815477475191,0.6926775468852495,-0.13962634015954636,0.64,1.96,9.44,-35.1875,-10.875,-23.375,1745522122.9011252
622,-0.17671458676442586,0.8966629032120869,-0.04363323129985824,0.64,1.79,9.21,-34.875,-12.0,-25.0,1745522122.9234023
623,-0.2748893571891069,0.9566585962493919,0.05345070834232634,0.66,1.97,9.290000000000001,-34.875,-12.0,-25.0,1745522122.9435587
624,-0.3043417883165112,0.9970193352017608,0.10253809355466686,0.55,2.02,9.36,-32.25,-10.875,-26.0625,1745522122.9609046
625,-0.3097959422289935,1.0319259202416473,0.08617563181722002,0.62,1.9100000000000001,9.370000000000001,-32.25,-10.875,-26.0625,1745522122.9832628
626,-0.36979163526629855,1.016654289286697,0.07635815477475191,0.06,1.69,9.290000000000001,-32.25,-10.875,-26.0625,1745522123.0015736
627,-0.4657847441259867,1.0973757671914346,0.136353847812057,-0.42,1.7,9.48,-32.6875,-11.25,-26.0625,1745522123.0235255
628,-0.5181446216858165,1.2675453692608818,0.16144295580947549,-0.28,1.69,9.48,-32.6875,-11.25,-26.0625,1745522123.0437462
629,-0.5639595145506677,1.2806353386508393,0.17998707911191522,-0.4,1.49,9.56,-30.875,-10.0625,-29.6875,1745522123.0616548
630,-0.5912302841130791,1.2173671532660448,0.24870941840919197,-1.1,1.33,9.5,-30.875,-10.0625,-29.6875,1745522123.0835476
631,-0.6217735460229799,1.296997800388286,0.30870511144649704,-1.02,1.27,9.55,-30.875,-10.0625,-29.6875,1745522123.1016295
632,-0.6784967467127956,1.3449943548181302,0.32615840396644036,-0.8200000000000001,1.12,9.49,-31.25,-10.5,-30.5,1745522123.1235735
633,-0.7188574856651645,1.2893619849108109,0.2781618495365963,-1.22,0.96,9.53,-31.25,-10.5,-30.5,1745522123.1438713
634,-0.7548549014875475,1.2184579840485412,0.26725354171163174,-1.54,0.87,9.48,-26.75,-8.25,-35.25,1745522123.1623838
635,-0.8333947178272924,1.2522737383059315,0.26398104936414235,-1.52,0.48,9.32,-26.75,-8.25,-35.25,1745522123.1837997
636,-0.9446594576419308,1.162825614141222,0.2781618495365963,-1.6400000000000001,0.54,9.61,-26.75,-8.25,-35.25,1745522123.2019875
637,-0.9882926889417891,1.0253809355466685,0.26070855701665296,-1.8,0.47000000000000003,9.58,-27.25,-7.25,-33.6875,1745522123.2239828
638,-0.9610219193793778,0.8792096106921435,0.22252947962927702,-1.8900000000000001,0.17,9.5,-27.25,-7.25,-33.6875,1745522123.243953
639,-0.9872018581592926,0.7406741013150936,0.14726215563702155,-1.8900000000000001,0.2,9.700000000000001,-23.1875,-5.0625,-38.6875,1745522123.2626684
640,-0.8759371183446542,0.5792311455056182,0.10035643198967395,-2.42,0.45,10.49,-23.1875,-5.0625,-38.6875,1745522123.2838905
641,-0.5923211148955756,0.459239759431008,0.05235987755982989,-2.42,0.4,10.5,-24.0,-2.875,-38.0,1745522123.3026445
642,-0.16253378659197193,0.10690141668465268,0.00545415391248228,-2.37,-0.06,10.15,-24.0,-2.875,-38.0,1745522123.3252547
643,0.031634092692397225,-0.06763150851478027,-0.09381144729469522,-2.52,-0.42,9.83,-24.0,-2.875,-38.0,1745522123.34514
644,0.11235557059713497,-0.14944381720201447,-0.14180800172453928,-2.87,-0.44,9.8,-20.6875,-1.75,-40.6875,1745522123.3650641
645,0.18435040224190105,-0.16471544815696484,-0.11453723216212788,-2.9,-0.37,9.77,-20.6875,-1.75,-40.6875,1745522123.3851058
646,0.25089107997418486,-0.19853120241435498,-0.06654067773228381,-2.95,-0.54,9.63,-22.5,-1.75,-40.375,1745522123.4052703
647,0.23561944901923448,-0.18216874067690814,-0.04690572364734761,-2.71,-0.44,9.48,-22.5,-1.75,-40.375,1745522123.4250822
648,0.1908953869368798,-0.15162547876700738,-0.01090830782496456,-2.72,-0.33,9.58,-22.5,-1.75,-40.375,1745522123.445181
649,0.14508049407202864,-0.11453723216212788,0.00545415391248228,-2.5300000000000002,-0.25,9.48,-23.25,-3.25,-39.5,1745522123.4654307
650,0.09490227807719166,-0.10253809355466686,0.013089969389957472,-2.39,0.12,9.66,-23.25,-3.25,-39.5,1745522123.4853957
651,0.136353847812057,-0.10799224746714914,0.018544123302439753,-2.32,0.23,9.75,-22.875,-2.1875,-39.1875,1745522123.5052176
652,0.17780541754692233,-0.09599310885968812,0.020725784867432664,-2.37,0.19,9.58,-22.875,-2.1875,-39.1875,1745522123.5255682
653,0.15817046346198613,-0.04690572364734761,0.014180800172453928,-2.2600000000000002,0.1,9.46,-22.875,-2.1875,-39.1875,1745522123.5453513
654,0.08399397025222712,-0.03490658503988659,0.017453292519943295,-2.18,0.12,9.38,-23.6875,-3.5625,-40.375,1745522123.5657434
655,0.037088246604879506,-0.04581489286485115,0.015271630954950384,-2.33,0.19,9.48,-23.6875,-3.5625,-40.375,1745522123.585792
656,0.03599741582238305,-0.00545415391248228,0.006544984694978736,-2.27,0.21,9.49,-21.75,-3.25,-39.875,1745522123.6057258
657,0.02945243112740431,-0.003272492347489368,-0.016362461737446838,-2.15,0.34,9.48,-21.75,-3.25,-39.875,1745522123.6261253
658,0.05781403147231216,-0.06435901616729091,-0.04363323129985824,-2.18,0.33,9.65,-21.75,-3.25,-39.875,1745522123.6457245
659,0.10581058590215622,-0.09817477042468103,-0.06435901616729091,-2.36,0.22,9.620000000000001,-24.0,-4.25,-38.6875,1745522123.665958
660,0.11344640137963143,-0.10253809355466686,-0.06217735460229799,-2.36,0.16,9.540000000000001,-24.0,-4.25,-38.6875,1745522123.686236
661,0.08617563181722002,-0.07853981633974483,-0.05235987755982989,-2.54,0.0,9.43,-22.1875,-4.0,-39.1875,1745522123.706162
662,0.030543261909900768,-0.018544123302439753,-0.031634092692397225,-2.42,0.0,9.47,-22.1875,-4.0,-39.1875,1745522123.7270586
663,0.003272492347489368,0.0272707695624114,-0.004363323129985824,-2.48,0.16,9.66,-22.1875,-4.0,-39.1875,1745522123.7461042
664,0.016362461737446838,0.07417649320975901,-0.002181661564992912,-2.31,0.17,9.61,-24.25,-4.0,-38.0,1745522123.7664049
665,0.018544123302439753,0.02399827721492203,-0.00545415391248228,-2.2800000000000002,0.1,9.57,-24.25,-4.0,-38.0,1745522123.7884128
666,0.020725784867432664,0.006544984694978736,-0.014180800172453928,-2.4,0.2,9.59,-22.1875,-4.25,-40.375,1745522123.8080206
667,0.03381575425739013,0.006544984694978736,-0.008726646259971648,-2.39,0.07,9.51,-22.1875,-4.25,-40.375,1745522123.8280556
668,0.018544123302439753,-0.007635815477475192,0.008726646259971648,-2.46,0.15,9.56,-22.1875,-4.25,-40.375,1745522123.8464851
669,0.025089107997418487,0.01090830782496456,0.015271630954950384,-2.39,0.17,9.53,-23.6875,-3.5625,-38.6875,1745522123.8667707
670,0.018544123302439753,0.017453292519943295,0.018544123302439753,-2.35,0.2,9.43,-23.6875,-3.5625,-38.6875,1745522123.8893497
671,-0.002181661564992912,0.017453292519943295,0.015271630954950384,-2.41,0.17,9.49,-22.875,-3.5625,-40.375,1745522123.9084854
672,-0.002181661564992912,0.038179077387375956,0.017453292519943295,-2.32,0.31,9.6,-22.875,-3.5625,-40.375,1745522123.928939
673,0.015271630954950384,0.001090830782496456,0.019634954084936207,-2.2,0.23,9.540000000000001,-22.875,-3.5625,-40.375,1745522123.9469335
674,0.020725784867432664,-0.025089107997418487,0.011999138607461015,-2.52,0.24,9.57,-23.6875,-4.25,-37.5,1745522123.9674816
675,0.01090830782496456,0.038179077387375956,0.020725784867432664,-2.33,0.15,9.370000000000001,-23.6875,-4.25,-37.5,1745522123.9896867
676,-0.017453292519943295,0.031634092692397225,0.02399827721492203,-2.2,0.2,9.41,-22.5,-4.25,-40.6875,1745522124.007647
677,-0.04254240051736178,-0.014180800172453928,0.019634954084936207,-2.33,0.25,9.52,-22.5,-4.25,-40.6875,1745522124.029736
678,-0.026179938779914945,-0.039269908169872414,0.015271630954950384,-2.39,0.25,9.59,-22.5,-4.25,-40.6875,1745522124.0475252
679,0.003272492347489368,-0.019634954084936207,0.018544123302439753,-2.44,0.23,9.63,-23.6875,-4.0,-39.1875,1745522124.0684419
680,0.011999138607461015,0.022907446432425576,0.006544984694978736,-2.41,0.21,9.56,-23.6875,-4.0,-39.1875,1745522124.0906188
681,-0.004363323129985824,0.030543261909900768,0.002181661564992912,-2.19,0.18,9.52,-22.875,-4.6875,-38.0,1745522124.1080346
682,-0.015271630954950384,-0.019634954084936207,0.004363323129985824,-2.2600000000000002,0.24,9.6,-22.875,-4.6875,-38.0,1745522124.1305177
683,0.002181661564992912,-0.009817477042468103,0.001090830782496456,-2.46,0.34,9.65,-22.875,-4.6875,-38.0,1745522124.147874
684,0.02945243112740431,0.014180800172453928,-0.001090830782496456,-2.29,0.17,9.5,-22.1875,-3.5625,-37.5,1745522124.1710992
685,0.011999138607461015,0.003272492347489368,-0.008726646259971648,-2.29,0.13,9.53,-22.1875,-3.5625,-37.5,1745522124.1910264
686,-0.009817477042468103,-0.004363323129985824,-0.013089969389957472,-2.37,0.18,9.52,-24.0,-5.0625,-40.375,1745522124.21114
687,-0.017453292519943295,-0.018544123302439753,-0.004363323129985824,-2.45,0.23,9.6,-24.0,-5.0625,-40.375,1745522124.2309742
688,0.0,-0.001090830782496456,-0.00545415391248228,-2.23,0.19,9.51,-24.0,-5.0625,-40.375,1745522124.2480857
689,0.002181661564992912,-0.050178215994836975,-0.014180800172453928,-2.29,0.18,9.49,-22.5,-4.25,-39.1875,1745522124.2711563
690,-0.00545415391248228,-0.044724062082354694,-0.007635815477475192,-2.64,0.18,9.56,-22.5,-4.25,-39.1875,1745522124.2916598
691,-0.013089969389957472,0.0272707695624114,0.011999138607461015,-2.48,0.12,9.52,-24.25,-4.0,-38.0,1745522124.3092482
692,-0.015271630954950384,0.02945243112740431,0.022907446432425576,-2.22,0.18,9.59,-24.25,-4.0,-38.0,1745522124.3314164
693,-0.006544984694978736,-0.008726646259971648,0.016362461737446838,-2.22,0.19,9.540000000000001,-24.25,-4.0,-38.0,1745522124.348792
694,-0.004363323129985824,-0.04908738521234052,-0.003272492347489368,-2.2600000000000002,0.1,9.52,-22.1875,-4.0,-39.5,1745522124.3734245
695,-0.02399827721492203,-0.055632369907319255,-0.009817477042468103,-2.45,0.12,9.57,-22.1875,-4.0,-39.5,1745522124.3919032
696,-0.03381575425739013,-0.02945243112740431,0.01090830782496456,-2.52,0.22,9.65,-25.0625,-3.5625,-36.75,1745522124.408931
697,-0.013089969389957472,-0.007635815477475192,0.02945243112740431,-2.2800000000000002,0.21,9.57,-25.0625,-3.5625,-36.75,1745522124.4317372
698,0.002181661564992912,-0.020725784867432664,0.020725784867432664,-2.31,0.26,9.64,-22.1875,-3.5625,-39.5,1745522124.4504707
699,0.018544123302439753,-0.002181661564992912,0.00545415391248228,-2.29,0.2,9.58,-22.1875,-3.5625,-39.5,1745522124.4716127
700,0.020725784867432664,-0.011999138607461015,-0.002181661564992912,-2.23,0.16,9.61,-22.1875,-3.5625,-39.5,1745522124.4919424
701,0.006544984694978736,-0.013089969389957472,0.004363323129985824,-2.25,0.21,9.63,-24.6875,-2.875,-37.1875,1745522124.5118563
702,0.00545415391248228,-0.003272492347489368,-0.008726646259971648,-2.2,0.14,9.57,-24.6875,-2.875,-37.1875,1745522124.5317566
703,-0.006544984694978736,-0.0272707695624114,-0.016362461737446838,-2.3000000000000003,0.22,9.59,-24.6875,-2.875,-37.1875,1745522124.549834
704,0.007635815477475192,-0.015271630954950384,-0.019634954084936207,-2.3000000000000003,0.13,9.52,-22.875,-3.5625,-39.875,1745522124.5719585
705,0.003272492347489368,-0.007635815477475192,-0.013089969389957472,-2.42,0.23,9.51,-22.875,-3.5625,-39.875,1745522124.592152
706,-0.002181661564992912,-0.038179077387375956,0.004363323129985824,-2.36,0.21,9.52,-23.6875,-3.5625,-38.6875,1745522124.6101685
707,0.014180800172453928,-0.03381575425739013,0.007635815477475192,-2.19,0.27,9.55,-23.6875,-3.5625,-38.6875,1745522124.6318505
708,0.031634092692397225,-0.06981317007977318,-0.002181661564992912,-2.1,0.17,9.55,-23.6875,-3.5625,-38.6875,1745522124.6502755
709,0.030543261909900768,-0.13744467859455345,-0.020725784867432664,-2.15,0.27,9.64,-23.6875,-4.25,-38.0,1745522124.6721756
710,0.02945243112740431,-0.17235126363444003,-0.04363323129985824,-2.31,0.13,9.69,-23.6875,-4.25,-38.0,1745522124.692414
711,0.06544984694978735,-0.2083486794568231,-0.04036073895236887,-2.42,0.24,9.66,-22.875,-3.5625,-38.6875,1745522124.7111216
712,0.08944812416470939,-0.17780541754692233,-0.017453292519943295,-2.22,0.17,9.49,-22.875,-3.5625,-38.6875,1745522124.731945
713,0.07308566242726255,-0.1636246173744684,-0.02399827721492203,-2.22,0.13,9.5,-24.6875,-4.6875,-37.1875,1745522124.750601
714,0.02945243112740431,-0.0916297857297023,-0.018544123302439753,-2.19,0.15,9.55,-24.6875,-4.6875,-37.1875,1745522124.772193
715,-0.01090830782496456,-0.02945243112740431,0.006544984694978736,-2.18,0.29,9.64,-24.6875,-4.6875,-37.1875,1745522124.792317
716,-0.032724923474893676,0.002181661564992912,0.02399827721492203,-2.0300000000000002,0.27,9.67,-23.6875,-3.5625,-38.375,1745522124.811658
717,-0.02399827721492203,0.007635815477475192,0.026179938779914945,-2.02,0.32,9.71,-23.6875,-3.5625,-38.375,1745522124.8320622
718,-0.01090830782496456,0.016362461737446838,0.013089969389957472,-1.95,0.29,9.71,-25.75,-4.25,-38.0,1745522124.8509212
719,-0.008726646259971648,0.022907446432425576,0.0,-1.98,0.28,9.61,-25.75,-4.25,-38.0,1745522124.8722868
720,-0.018544123302439753,0.019634954084936207,-0.003272492347489368,-2.07,0.29,9.69,-25.75,-4.25,-38.0,1745522124.8924403
721,-0.011999138607461015,0.030543261909900768,-0.011999138607461015,-2.04,0.27,9.65,-22.5,-3.25,-38.375,1745522124.9117408
722,0.0,0.020725784867432664,-0.01090830782496456,-2.14,0.25,9.59,-22.5,-3.25,-38.375,1745522124.9322386
723,0.014180800172453928,0.022907446432425576,-0.002181661564992912,-2.07,0.18,9.58,-23.6875,-3.5625,-37.5,1745522124.9513702
724,0.019634954084936207,0.020725784867432664,-0.003272492347489368,-2.1,0.13,9.52,-23.6875,-3.5625,-37.5,1745522124.972384
725,0.015271630954950384,0.007635815477475192,-0.017453292519943295,-2.2,0.17,9.52,-23.6875,-3.5625,-37.5,1745522124.9925148
726,-0.009817477042468103,0.020725784867432664,-0.007635815477475192,-2.25,0.18,9.57,-23.25,-4.0,-39.5,1745522125.0124974
727,-0.013089969389957472,0.022907446432425576,0.001090830782496456,-2.32,0.3,9.66,-23.25,-4.0,-39.5,1745522125.0323472
728,0.014180800172453928,0.026179938779914945,0.014180800172453928,-2.22,0.41000000000000003,9.72,-24.6875,-3.25,-38.0,1745522125.051877
729,0.10581058590215622,-0.04363323129985824,0.04363323129985824,-2.18,0.26,9.48,-24.6875,-3.25,-38.0,1745522125.0725076
730,0.09708393964218458,-0.04581489286485115,0.03599741582238305,-2.14,0.36,9.4,-24.6875,-3.25,-38.0,1745522125.0927155
731,0.1090830782496456,-0.04254240051736178,0.030543261909900768,-1.99,0.68,9.71,-23.25,-4.0,-38.6875,1745522125.1123228
732,0.26070855701665296,-0.11999138607461016,-0.02399827721492203,-1.62,1.09,10.34,-23.25,-4.0,-38.6875,1745522125.1325793
733,0.5781403147231217,-0.31634092692397225,-0.10253809355466686,-1.46,1.36,10.49,-24.25,-3.5625,-37.5,1745522125.1522613
734,0.9512044423369096,-0.6305001922829515,-0.19525871006686563,-1.84,1.08,10.26,-24.25,-3.5625,-37.5,1745522125.1727717
735,1.2217304763960306,-0.8912087492996045,-0.21489366415180183,-2.42,1.12,9.950000000000001,-24.25,-3.5625,-37.5,1745522125.1928766
736,1.4311699866353502,-1.0264717663291651,-0.22471114119426994,-1.78,1.16,9.86,-24.6875,-6.1875,-37.5,1745522125.212679
737,1.6187928812247407,-1.246819584393449,-0.21925698728178766,-1.62,1.61,9.97,-24.6875,-6.1875,-37.5,1745522125.2326565
738,1.8685931304164292,-1.4540774330677757,-0.19416787928436915,-0.76,2.13,10.44,-25.75,-6.875,-34.75,1745522125.2526236
739,2.2143864884678055,-1.8315048838115495,-0.24652775684419906,0.0,2.2,10.41,-25.75,-6.875,-34.75,1745522125.2728107
740,2.443460952792061,-2.203478180642841,-0.3490658503988659,-0.58,1.8800000000000001,9.700000000000001,-25.75,-6.875,-34.75,1745522125.2928677
741,2.3801927674072667,-2.2187498115977915,-0.2977968036215325,-1.16,1.8800000000000001,9.6,-28.0,-11.5625,-33.5625,1745522125.3129184
742,2.150027472300515,-1.9034997154563156,-0.11344640137963143,-0.96,2.5500000000000003,9.540000000000001,-28.0,-11.5625,-33.5625,1745522125.3329785
743,1.9776762086660746,-1.459531586980258,0.044724062082354694,0.41000000000000003,3.0300000000000002,9.040000000000001,-29.75,-13.75,-28.375,1745522125.3528879
744,1.8053249450316347,-1.2195488148310378,0.009817477042468103,1.42,3.39,8.81,-29.75,-13.75,-28.375,1745522125.3732994
745,1.6438819892221592,-1.1791880758786688,-0.11235557059713497,1.28,3.89,8.700000000000001,-29.75,-13.75,-28.375,1745522125.3932002
746,1.475894048717705,-1.0090184738092218,-0.18216874067690814,0.76,3.74,8.540000000000001,-33.0625,-17.5625,-21.1875,1745522125.414863
747,1.2337296150034918,-0.7254024703601433,-0.13744467859455345,0.56,4.23,8.49,-33.0625,-17.5625,-21.1875,1745522125.434133
748,1.1039207518864134,-0.4930555136883981,-0.030543261909900768,0.79,4.54,8.5,-32.375,-17.875,-19.6875,1745522125.4533505
749,0.9992009967667537,-0.33488505022641196,0.05126904677733343,0.99,4.54,8.0,-32.375,-17.875,-19.6875,1745522125.4743197
750,0.7952156404399164,-0.20180369476184434,0.12217304763960307,1.29,4.74,7.8100000000000005,-32.375,-17.875,-19.6875,1745522125.4936464
751,0.5770494839406252,-0.10035643198967395,0.17780541754692233,1.51,4.98,7.71,-35.375,-18.6875,-15.25,1745522125.5153189
752,0.42215151282612845,-0.050178215994836975,0.20289452554434081,1.71,5.29,7.57,-35.375,-18.6875,-15.25,1745522125.5350702
753,0.30543261909900765,-0.026179938779914945,0.15162547876700738,2.19,5.3100000000000005,7.44,-32.0625,-19.0625,-15.6875,1745522125.5537307
754,0.19416787928436915,-0.08726646259971647,0.05235987755982989,2.08,5.7,7.95,-32.0625,-19.0625,-15.6875,1745522125.5754397
755,0.22252947962927702,-0.09053895494720585,-0.030543261909900768,1.72,5.61,7.95,-32.0625,-19.0625,-15.6875,1745522125.594035
756,0.21162117180431245,-0.05126904677733343,-0.018544123302439753,1.32,5.48,7.66,-34.0,-18.6875,-12.0625,1745522125.6164017
757,0.1265363707695889,0.04145156973486533,0.05235987755982989,1.7,5.59,7.640000000000001,-34.0,-18.6875,-12.0625,1745522125.6362388
758,0.04254240051736178,0.08835729338221293,0.05345070834232634,2.12,5.5600000000000005,7.69,-33.25,-20.5625,-15.25,1745522125.6541467
759,0.003272492347489368,0.02399827721492203,0.002181661564992912,1.95,5.68,7.87,-33.25,-20.5625,-15.25,1745522125.6768537
760,0.013089969389957472,-0.014180800172453928,-0.04036073895236887,1.79,5.6000000000000005,7.83,-33.25,-20.5625,-15.25,1745522125.6944475
761,0.011999138607461015,-0.014180800172453928,-0.04254240051736178,1.27,5.54,8.03,-33.25,-18.75,-13.1875,1745522125.7179344
762,0.025089107997418487,0.06981317007977318,-0.007635815477475192,1.35,5.44,7.92,-33.25,-18.75,-13.1875,1745522125.7374907
763,0.003272492347489368,0.11999138607461016,0.015271630954950384,1.73,5.57,7.99,-34.0,-19.875,-14.375,1745522125.754591
764,0.038179077387375956,0.061086523819801536,-0.007635815477475192,1.83,5.6000000000000005,8.06,-34.0,-19.875,-14.375,1745522125.7778332
765,0.06544984694978735,-0.00545415391248228,-0.04036073895236887,1.43,5.45,7.930000000000001,-34.0,-19.875,-14.375,1745522125.794913
766,0.04581489286485115,0.01090830782496456,-0.04363323129985824,1.35,5.29,7.83,-32.1875,-18.75,-14.75,1745522125.8184721
767,-0.001090830782496456,0.05235987755982989,-0.032724923474893676,1.3,5.43,7.98,-32.1875,-18.75,-14.75,1745522125.8386343
768,0.007635815477475192,0.09708393964218458,-0.01090830782496456,1.41,5.43,8.040000000000001,-34.375,-20.0,-12.75,1745522125.8550305
769,0.02181661564992912,0.08508480103472356,0.014180800172453928,1.5,5.47,8.0,-34.375,-20.0,-12.75,1745522125.8776765
770,0.038179077387375956,0.04036073895236887,0.009817477042468103,1.56,5.51,8.01,-34.375,-20.0,-12.75,1745522125.8953702
771,0.05126904677733343,-0.01090830782496456,-0.006544984694978736,1.42,5.49,7.930000000000001,-32.1875,-19.25,-14.75,1745522125.917843
772,0.03599741582238305,-0.015271630954950384,-0.01090830782496456,1.31,5.44,7.92,-32.1875,-19.25,-14.75,1745522125.9385648
773,0.009817477042468103,0.05345070834232634,-0.003272492347489368,1.32,5.5,7.99,-34.0,-19.6875,-14.0,1745522125.9554806
774,0.02945243112740431,0.0818123086872342,0.011999138607461015,1.42,5.53,7.94,-34.0,-19.6875,-14.0,1745522125.978323
775,0.04254240051736178,0.04581489286485115,0.022907446432425576,1.41,5.5200000000000005,7.91,-34.0,-19.6875,-14.0,1745522125.9957566
776,0.03490658503988659,0.0272707695624114,0.02399827721492203,1.43,5.55,7.91,-32.1875,-19.6875,-15.5625,1745522126.0181482
777,0.02181661564992912,0.039269908169872414,0.02399827721492203,1.45,5.46,7.74,-32.1875,-19.6875,-15.5625,1745522126.0388045
778,-0.006544984694978736,0.05672320068981571,0.016362461737446838,1.55,5.5600000000000005,7.8,-34.0,-18.5,-12.75,1745522126.0559096
779,-0.002181661564992912,0.055632369907319255,0.001090830782496456,1.45,5.66,7.91,-34.0,-18.5,-12.75,1745522126.0790534
780,0.0272707695624114,0.05235987755982989,0.002181661564992912,1.5,5.63,7.92,-34.0,-18.5,-12.75,1745522126.0961676
781,0.03381575425739013,0.032724923474893676,0.004363323129985824,1.43,5.5600000000000005,7.82,-32.875,-20.0,-15.1875,1745522126.1181107
782,0.014180800172453928,0.03381575425739013,0.008726646259971648,1.3800000000000001,5.5200000000000005,7.82,-32.875,-20.0,-15.1875,1745522126.139247
783,0.004363323129985824,0.04908738521234052,0.008726646259971648,1.3900000000000001,5.5,7.8100000000000005,-32.875,-19.25,-13.1875,1745522126.156265
784,-0.03490658503988659,0.0818123086872342,0.003272492347489368,1.42,5.53,7.78,-32.875,-19.25,-13.1875,1745522126.1790383
785,-0.05235987755982989,0.07744898555724837,0.003272492347489368,1.52,5.53,7.88,-32.875,-19.25,-13.1875,1745522126.1967027
786,-0.0719948316447661,0.025089107997418487,-0.011999138607461015,1.37,5.49,7.95,-34.0,-20.0,-15.1875,1745522126.2184072
787,-0.09490227807719166,0.018544123302439753,-0.032724923474893676,1.28,5.3100000000000005,7.94,-34.0,-20.0,-15.1875,1745522126.2393687
788,-0.1505346479845109,0.04581489286485115,-0.006544984694978736,1.06,5.3,7.97,-31.75,-18.875,-16.0,1745522126.2566712
789,-0.2203478180642841,0.10253809355466686,0.031634092692397225,1.1,4.9,7.79,-31.75,-18.875,-16.0,1745522126.279337
790,-0.3785182815262702,0.13962634015954636,0.07853981633974483,1.09,4.78,7.78,-31.75,-18.875,-16.0,1745522126.2971604
791,-0.6392268385429232,0.18762289458939044,0.136353847812057,0.8200000000000001,4.19,7.38,-34.0,-19.6875,-13.1875,1745522126.3194745
792,-1.0122909661567112,0.2519819107566813,0.19744037163185854,0.54,3.42,7.43,-34.0,-19.6875,-13.1875,1745522126.3394532
793,-1.5391622341024993,0.4385139745635753,0.3839724354387525,0.52,3.18,7.69,-32.1875,-19.25,-16.0,1745522126.3573377
794,-2.1805707342104155,0.8072147790473774,0.6632251157578453,1.09,3.27,7.8,-32.1875,-19.25,-16.0,1745522126.3796093
795,-2.72707695624114,1.0570150282390658,0.7984881327874057,1.56,3.23,7.96,-32.1875,-19.25,-16.0,1745522126.3975885
796,-3.102322745419921,1.0079276430267252,0.8312130562622995,1.6,2.82,9.18,-34.6875,-17.5,-18.25,1745522126.4195566
797,-3.1874075464546445,1.0112001353742146,0.7635815477475192,0.51,2.88,10.040000000000001,-34.6875,-17.5,-18.25,1745522126.4396996
798,-3.12413936106985,1.1977321991811087,0.7046766854927106,0.53,2.72,9.76,-33.25,-13.875,-24.6875,1745522126.4578505
799,-2.937607297262956,1.227184630308513,0.7428557628800865,-0.18,0.65,10.26,-33.25,-13.875,-24.6875,1745522126.479595
800,-2.869975788748176,1.2020955223110945,0.8475755179997463,-0.55,1.3,10.6,-32.5625,-8.375,-28.1875,1745522126.4979944
801,-2.7859818184959484,1.3220869083857045,0.7494007475750653,0.68,0.58,10.290000000000001,-32.5625,-8.375,-28.1875,1745522126.5194664
802,-2.5405448924342457,1.08646745936647,0.6403176693254197,0.22,0.8,10.32,-32.5625,-8.375,-28.1875,1745522126.5396092
803,-2.255838058202671,0.8388488717397746,0.4919646829059016,0.02,0.62,10.290000000000001,-33.375,-4.5,-31.375,1745522126.5584536
804,-1.9362246389312094,0.6108652381980153,0.3785182815262702,-0.8300000000000001,-0.5,9.86,-33.375,-4.5,-31.375,1745522126.5798032
805,-1.8162332528565992,0.543233729683235,0.33597588100890846,-1.03,-0.53,9.92,-29.75,0.0625,-33.25,1745522126.5984015
806,-1.6940602052169962,0.6435901616729091,0.3239767424014474,-0.61,-0.99,10.34,-29.75,0.0625,-33.25,1745522126.6197033
807,-1.4606224177627545,0.56941366846315,0.3425208657038872,-0.35000000000000003,-1.01,9.8,-29.75,0.0625,-33.25,1745522126.6398377
808,-1.275181184738357,0.4134248665661568,0.16689710972195776,-0.44,-1.32,9.98,-30.75,2.875,-34.5,1745522126.6586294
809,-1.1442814908387824,0.34143003492139073,0.06435901616729091,-0.99,-1.53,10.13,-30.75,2.875,-34.5,1745522126.679837
810,-0.954476934684399,0.3021601267515183,0.028361600344907856,-1.1400000000000001,-1.67,9.98,-28.5625,6.1875,-37.0625,1745522126.6987536
811,-0.7984881327874057,0.2617993877991494,0.03381575425739013,-1.02,-2.35,9.59,-28.5625,6.1875,-37.0625,1745522126.7197907
812,-0.7384924397501007,0.2476185876266955,0.017453292519943295,-1.24,-2.29,9.69,-28.5625,6.1875,-37.0625,1745522126.739944
813,-0.729765793490129,0.2781618495365963,-0.025089107997418487,-1.11,-2.19,9.91,-29.0,7.75,-33.5625,1745522126.7590177
814,-0.5934119456780721,0.2814343418840856,-0.09708393964218458,-1.21,-2.43,9.85,-29.0,7.75,-33.5625,1745522126.7803872
815,-0.4308781590861001,0.15271630954950383,-0.10471975511965978,-1.62,-2.67,9.59,-27.5625,7.75,-37.0625,1745522126.7990859
816,-0.35452000431134817,0.08944812416470939,-0.031634092692397225,-1.61,-2.82,9.51,-27.5625,7.75,-37.0625,1745522126.8198292
817,-0.34033920413889424,0.1636246173744684,-0.006544984694978736,-1.4000000000000001,-2.9,9.31,-27.5625,7.75,-37.0625,1745522126.8401244
818,-0.34579335805137656,0.1930770485018727,0.014180800172453928,-1.06,-2.81,9.3,-28.375,10.1875,-33.875,1745522126.859592
819,-0.3436116964863836,0.1265363707695889,-0.037088246604879506,-1.16,-2.64,9.5,-28.375,10.1875,-33.875,1745522126.8811874
820,-0.2519819107566813,0.06872233929727672,-0.07417649320975901,-1.07,-2.75,9.52,-27.6875,9.875,-37.5625,1745522126.9008083
821,-0.15489797111449674,-0.02399827721492203,-0.13308135546456762,-1.31,-2.92,9.46,-27.6875,9.875,-37.5625,1745522126.921266
822,-0.10471975511965978,-0.05890486225480862,-0.11235557059713497,-1.76,-3.08,9.48,-27.6875,9.875,-37.5625,1745522126.9408276
823,-0.08617563181722002,0.011999138607461015,-0.09381144729469522,-1.6500000000000001,-3.17,9.33,-28.6875,11.375,-36.25,1745522126.9608638
824,-0.14508049407202864,0.08944812416470939,-0.0272707695624114,-1.6500000000000001,-3.13,9.27,-28.6875,11.375,-36.25,1745522126.9812362
825,-0.1712604328519436,0.14289883250703572,0.044724062082354694,-1.49,-2.92,9.42,-28.0625,10.5625,-35.0625,1745522127.0011618
826,-0.1265363707695889,0.1439896632895322,0.05999569303730508,-1.2,-2.9,9.46,-28.0625,10.5625,-35.0625,1745522127.022576
827,-0.02945243112740431,0.04908738521234052,0.061086523819801536,-1.28,-2.74,9.51,-28.0625,10.5625,-35.0625,1745522127.0413215
828,0.09053895494720585,-0.0272707695624114,0.038179077387375956,-1.48,-3.39,9.18,-28.0625,11.6875,-37.0,1745522127.0625048
829,0.06981317007977318,-0.032724923474893676,-0.05890486225480862,-1.59,-3.38,8.98,-28.0625,11.6875,-37.0,1745522127.0832791
830,-0.014180800172453928,0.007635815477475192,-0.032724923474893676,-1.62,-3.15,9.19,-28.375,11.25,-36.6875,1745522127.1016154
831,-0.038179077387375956,0.05235987755982989,-0.013089969389957472,-1.3800000000000001,-2.94,9.3,-28.375,11.25,-36.6875,1745522127.1238034
832,-0.004363323129985824,0.04036073895236887,-0.01090830782496456,-1.47,-2.86,9.450000000000001,-28.375,11.25,-36.6875,1745522127.1415963
833,0.06435901616729091,0.004363323129985824,-0.01090830782496456,-1.5,-3.0300000000000002,9.38,-26.5625,11.5625,-37.0,1745522127.1621869
834,0.10471975511965978,-0.003272492347489368,-0.020725784867432664,-1.52,-3.09,9.17,-26.5625,11.5625,-37.0,1745522127.1831837
835,0.09490227807719166,0.02945243112740431,-0.0272707695624114,-1.58,-3.12,9.15,-28.6875,11.25,-36.25,1745522127.2019637
836,0.04581489286485115,0.0719948316447661,-0.00545415391248228,-1.44,-2.98,9.16,-28.6875,11.25,-36.25,1745522127.2235672
837,0.030543261909900768,0.06544984694978735,0.016362461737446838,-1.34,-2.99,9.16,-28.6875,11.25,-36.25,1745522127.2420464
838,0.02181661564992912,0.03599741582238305,0.009817477042468103,-1.35,-2.93,9.24,-26.875,10.875,-36.6875,1745522127.2626143
839,0.032724923474893676,0.001090830782496456,-0.019634954084936207,-1.48,-2.97,9.21,-26.875,10.875,-36.6875,1745522127.2844305
840,0.02945243112740431,-0.001090830782496456,-0.017453292519943295,-1.47,-2.97,9.27,-28.375,10.5,-37.0,1745522127.3023145
841,0.02399827721492203,0.006544984694978736,-0.020725784867432664,-1.49,-2.96,9.16,-28.375,10.5,-37.0,1745522127.324586
842,0.014180800172453928,0.004363323129985824,-0.013089969389957472,-1.56,-2.98,9.3,-28.375,10.5,-37.0,1745522127.3423836
843,0.009817477042468103,0.015271630954950384,0.02945243112740431,-1.48,-2.83,9.42,-25.5,10.875,-36.25,1745522127.3647063
844,0.05999569303730508,0.008726646259971648,0.026179938779914945,-1.34,-2.93,9.33,-25.5,10.875,-36.25,1745522127.3855994
845,0.06326818538479445,0.009817477042468103,0.0,-1.44,-2.95,9.16,-28.0625,11.25,-36.6875,1745522127.4026887
846,0.05235987755982989,0.0272707695624114,-0.019634954084936207,-1.41,-2.9,9.18,-28.0625,11.25,-36.6875,1745522127.425991
847,0.04908738521234052,0.003272492347489368,-0.017453292519943295,-1.5,-2.89,9.27,-28.0625,11.25,-36.6875,1745522127.4429965
848,0.050178215994836975,-0.007635815477475192,-0.019634954084936207,-1.43,-2.92,9.21,-27.25,11.25,-37.875,1745522127.463589
849,0.04145156973486533,-0.020725784867432664,-0.006544984694978736,-1.48,-2.7800000000000002,9.22,-27.25,11.25,-37.875,1745522127.4862504
850,0.0545415391248228,-0.016362461737446838,-0.011999138607461015,-1.57,-2.83,9.18,-28.6875,10.5,-35.875,1745522127.5036843
851,0.04799655442984406,0.001090830782496456,-0.016362461737446838,-1.52,-2.91,9.07,-28.6875,10.5,-35.875,1745522127.526132
852,0.014180800172453928,0.009817477042468103,-0.017453292519943295,-1.49,-2.86,9.22,-28.6875,10.5,-35.875,1745522127.5431564
853,0.004363323129985824,0.011999138607461015,-0.009817477042468103,-1.51,-2.7600000000000002,9.38,-25.875,11.25,-39.0,1745522127.5666645
854,0.044724062082354694,0.007635815477475192,-0.006544984694978736,-1.4000000000000001,-2.82,9.4,-25.875,11.25,-39.0,1745522127.5869997
855,0.09490227807719166,-0.04908738521234052,-0.020725784867432664,-1.46,-2.86,9.3,-27.6875,10.5,-35.875,1745522127.6034482
