Packet number,Gyroscope X (deg/s),Gyroscope Y (deg/s),Gyroscope Z (deg/s),Accelerometer X (g),Accelerometer Y (g),Accelerometer Z (g),Magnetometer X (G),Magnetometer Y (G),Magnetometer Z (G)
1,-0.003272492,0.001090831,0.001090831,-0.34,-0.31,9.39,0,0,0
2,-0.006544985,0.001090831,-0.002181662,-0.32,-0.34,9.38,0,0,0
3,-0.007635815,-0.003272492,-0.003272492,-0.33,-0.36,9.39,0,0,0
4,-0.008726646,0,-0.011999139,-0.33,-0.34,9.43,0,0,0
5,-0.011999139,0,-0.04145157,-0.33,-0.36,9.4,0,0,0
6,-0.019634954,-0.002181662,-0.135263017,-0.33,-0.34,9.39,0,0,0
7,-0.017453293,-0.002181662,-0.151625479,-0.38,-0.39,9.4,0,0,0
8,-0.017453293,-0.001090831,-0.177805418,-0.32,-0.36,9.37,0,0,0
9,-0.013089969,-0.005454154,-0.115628063,-0.3,-0.37,9.4,0,0,0
10,-0.008726646,-0.005454154,-0.087266463,-0.31,-0.39,9.4,0,0,0
11,-0.006544985,-0.004363323,-0.057814031,-0.33,-0.4,9.4,0,0,0
12,-0.013089969,-0.006544985,-0.052359878,-0.33,-0.36,9.38,0,0,0
13,-0.010908308,-0.006544985,-0.034906585,-0.33,-0.37,9.39,0,0,0
14,-0.004363323,-0.003272492,-0.006544985,-0.33,-0.38,9.42,0,0,0
15,-0.003272492,-0.006544985,-0.006544985,-0.34,-0.37,9.43,0,0,0
16,-0.009817477,-0.008726646,-0.025089108,-0.3,-0.41,9.41,0,0,0
17,-0.005454154,-0.005454154,-0.071994832,-0.27,-0.38,9.39,0,0,0
18,0,-0.002181662,-0.035997416,-0.3,-0.37,9.4,0,0,0
19,0.007635815,-0.006544985,-0.003272492,-0.32,-0.39,9.38,0,0,0
20,0.011999139,-0.003272492,-0.002181662,-0.31,-0.36,9.41,0,0,0
21,0.006544985,-0.005454154,-0.001090831,-0.32,-0.35,9.4,0,0,0
22,0.008726646,-0.010908308,0.013089969,-0.3,-0.35,9.4,0,0,0
23,0.016362462,-0.009817477,0.030543262,-0.25,-0.37,9.38,0,0,0
24,0.0141808,-0.004363323,0.126536371,-0.33,-0.37,9.4,0,0,0
25,0.017453293,-0.003272492,0.112355571,-0.32,-0.37,9.43,0,0,0
26,0.009817477,-0.001090831,0.093811447,-0.33,-0.35,9.41,0,0,0
27,0.005454154,0.001090831,0.052359878,-0.36,-0.31,9.41,0,0,0
28,0.005454154,0.004363323,0.0283616,-0.31,-0.33,9.39,0,0,0
29,0.003272492,0,0.017453293,-0.32,-0.36,9.4,0,0,0
30,-0.003272492,0.003272492,0.001090831,-0.32,-0.34,9.4,0,0,0
31,0,0.001090831,0,-0.32,-0.34,9.41,0,0,0
32,0,-0.002181662,-0.001090831,-0.31,-0.37,9.42,0,0,0
33,0.003272492,0,0.001090831,-0.31,-0.36,9.4,0,0,0
34,0.004363323,-0.003272492,0,-0.3,-0.35,9.4,0,0,0
35,0,0.001090831,-0.001090831,-0.29,-0.33,9.42,0,0,0
36,-0.001090831,0.002181662,0,-0.31,-0.33,9.42,0,0,0
37,0.003272492,0.002181662,0.001090831,-0.3,-0.35,9.37,0,0,0
38,0.001090831,0.001090831,0.001090831,-0.33,-0.33,9.39,0,0,0
39,0.004363323,-0.001090831,0.004363323,-0.32,-0.33,9.43,0,0,0
40,0.002181662,0.001090831,0.003272492,-0.3,-0.36,9.41,0,0,0
41,0.003272492,-0.001090831,0.001090831,-0.3,-0.36,9.39,0,0,0
42,0.004363323,-0.001090831,-0.001090831,-0.33,-0.33,9.39,0,0,0
43,0.003272492,-0.002181662,0.001090831,-0.32,-0.34,9.42,0,0,0
44,0.004363323,0.001090831,0.003272492,-0.32,-0.34,9.37,0,0,0
45,0,0,0.002181662,-0.33,-0.33,9.4,0,0,0
46,0.003272492,-0.004363323,0.001090831,-0.33,-0.36,9.4,0,0,0
47,0.002181662,-0.005454154,0.004363323,-0.3,-0.35,9.43,0,0,0
48,0.001090831,-0.002181662,0.022907446,-0.31,-0.34,9.4,0,0,0
49,0.002181662,-0.001090831,0.025089108,-0.33,-0.33,9.39,0,0,0
50,0.002181662,0.002181662,0.008726646,-0.33,-0.34,9.41,0,0,0
51,0.002181662,0,0.005454154,-0.31,-0.34,9.4,0,0,0
52,0,0,0.004363323,-0.32,-0.35,9.39,0,0,0
53,0,-0.001090831,0.016362462,-0.32,-0.36,9.41,0,0,0
54,0.003272492,-0.005454154,0.026179939,-0.33,-0.36,9.4,0,0,0
55,0.001090831,-0.002181662,0.025089108,-0.32,-0.34,9.4,0,0,0
56,0.004363323,0,0.020725785,-0.29,-0.35,9.41,0,0,0
57,0.003272492,0.002181662,0.019634954,-0.29,-0.37,9.42,0,0,0
58,0.003272492,0.001090831,0.030543262,-0.3,-0.34,9.39,0,0,0
59,0.009817477,0.001090831,0.062177355,-0.32,-0.36,9.36,0,0,0
60,0.008726646,0,0.070904001,-0.35,-0.29,9.42,0,0,0
61,0.005454154,-0.002181662,0.05563237,-0.33,-0.33,9.39,0,0,0
62,0.004363323,-0.001090831,0.035997416,-0.34,-0.33,9.4,0,0,0
63,0.003272492,-0.006544985,0.029452431,-0.32,-0.34,9.39,0,0,0
64,0.005454154,-0.004363323,0.044724062,-0.3,-0.36,9.41,0,0,0
65,0.004363323,-0.006544985,0.054541539,-0.31,-0.31,9.41,0,0,0
66,0.001090831,-0.005454154,0.051269047,-0.32,-0.29,9.41,0,0,0
67,-0.004363323,-0.003272492,0.0141808,-0.34,-0.29,9.4,0,0,0
68,-0.004363323,-0.006544985,0.001090831,-0.31,-0.34,9.39,0,0,0
69,-0.003272492,-0.003272492,-0.002181662,-0.33,-0.36,9.41,0,0,0
70,-0.004363323,-0.002181662,-0.003272492,-0.28,-0.33,9.4,0,0,0
71,-0.004363323,0,-0.007635815,-0.29,-0.36,9.4,0,0,0
72,0,-0.005454154,-0.007635815,-0.32,-0.34,9.4,0,0,0
73,0.001090831,-0.002181662,-0.008726646,-0.33,-0.32,9.39,0,0,0
74,0.005454154,-0.005454154,-0.007635815,-0.33,-0.33,9.34,0,0,0
75,0.006544985,-0.006544985,-0.001090831,-0.33,-0.36,9.39,0,0,0
76,0.004363323,-0.004363323,0,-0.33,-0.41,9.41,0,0,0
77,0.002181662,-0.005454154,-0.002181662,-0.34,-0.33,9.4,0,0,0
78,0.005454154,-0.008726646,-0.005454154,-0.39,-0.45,9.43,0,0,0
79,0.006544985,-0.016362462,-0.003272492,-0.37,-0.33,9.41,0,0,0
80,0,-0.010908308,-0.057814031,-0.25,-0.22,9.4,0,0,0
81,-0.002181662,-0.002181662,-0.063268185,-0.48,-0.61,9.41,0,0,0
82,-0.001090831,0.005454154,-0.141808002,-0.11,-0.06,9.37,0,0,0
83,-0.001090831,0.006544985,-0.058904862,-0.26,-0.32,9.4,0,0,0
84,0.005454154,0.001090831,0,-0.39,-0.46,9.4,0,0,0
85,0.013089969,-0.010908308,0.030543262,-0.31,-0.33,9.39,0,0,0
86,0.008726646,-0.011999139,0.031634093,-0.27,-0.23,9.4,0,0,0
87,0.003272492,-0.006544985,0.06981317,-0.24,-0.28,9.4,0,0,0
88,0.005454154,0.006544985,0.134172186,-0.35,-0.33,9.37,0,0,0
89,0.005454154,0.002181662,0.126536371,-0.32,-0.27,9.39,0,0,0
90,0.011999139,-0.005454154,0.08399397,-0.32,-0.35,9.39,0,0,0
91,0.0141808,-0.005454154,0.039269908,-0.29,-0.36,9.39,0,0,0
92,0.009817477,0.007635815,0.049087385,-0.27,-0.32,9.4,0,0,0
93,0.007635815,0.009817477,0.100356432,-0.29,-0.29,9.4,0,0,0
94,0.008726646,0.009817477,0.065449847,-0.3,-0.31,9.41,0,0,0
95,0.011999139,0.007635815,0.026179939,-0.31,-0.31,9.42,0,0,0
96,0.008726646,-0.006544985,-0.119991386,-0.31,-0.39,9.41,0,0,0
97,0.010908308,-0.008726646,-0.155988802,-0.3,-0.34,9.43,0,0,0
98,0.010908308,-0.006544985,-0.140717171,-0.29,-0.31,9.39,0,0,0
99,0.007635815,0.003272492,-0.110173909,-0.26,-0.28,9.4,0,0,0
100,0.009817477,0,-0.090538955,-0.31,-0.42,9.39,0,0,0
101,0.010908308,0,-0.070904001,-0.31,-0.53,9.39,0,0,0
102,0.016362462,0.008726646,0.026179939,-0.4,-0.79,9.41,0,0,0
103,0.016362462,0.009817477,0.057814031,-0.44,-0.71,9.39,0,0,0
104,0.025089108,0.001090831,-0.021816616,-0.5,-0.48,9.41,0,0,0
105,0.021816616,0,-0.064359016,-0.44,-0.5,9.42,0,0,0
106,0.031634093,0,-0.075267324,-0.22,-0.12,9.39,0,0,0
107,0.025089108,0.007635815,0.035997416,-0.32,-0.34,9.42,0,0,0
108,0.030543262,-0.002181662,0.011999139,-0.3,-0.31,9.4,0,0,0
109,0.025089108,-0.002181662,-0.053450708,-0.38,-0.35,9.4,0,0,0
110,0.019634954,0.001090831,-0.079630647,-0.2,-0.2,9.39,0,0,0
111,0.019634954,0.002181662,-0.010908308,-0.27,-0.47,9.39,0,0,0
112,0.018544123,0,0.031634093,-0.34,-0.61,9.42,0,0,0
113,0.0141808,0.004363323,0.038179077,-0.33,-0.68,9.41,0,0,0
114,0.0141808,0.007635815,0.0141808,-0.26,-0.3,9.39,0,0,0
115,0.0141808,0.003272492,-0.011999139,-0.29,0.02,9.42,0,0,0
116,0.006544985,-0.001090831,-0.031634093,-0.43,-0.25,9.41,0,0,0
117,0.004363323,-0.008726646,-0.06981317,-0.5,-0.24,9.39,0,0,0
118,-0.003272492,-0.002181662,-0.135263017,-0.21,0.03,9.39,0,0,0
119,0,-0.002181662,-0.087266463,-0.15,0.11,9.38,0,0,0
120,0.004363323,0.001090831,-0.045814893,-0.24,-0.34,9.44,0,0,0
121,0.004363323,0.008726646,0.058904862,-0.25,-0.35,9.38,0,0,0
122,0.002181662,0.007635815,0.051269047,-0.33,-0.63,9.41,0,0,0
123,-0.001090831,0.001090831,0.002181662,-0.43,-0.44,9.39,0,0,0
124,-0.004363323,-0.006544985,-0.102538094,-0.2,0.26,9.38,0,0,0
125,-0.001090831,0,-0.067631509,-0.45,-0.6,9.39,0,0,0
126,-0.001090831,0,-0.079630647,-0.22,-0.07,9.41,0,0,0
127,0,0,0.040360739,-0.28,-0.3,9.43,0,0,0
128,-0.003272492,0,0.032724923,-0.26,-0.35,9.42,0,0,0
129,-0.001090831,0.003272492,0.061086524,-0.34,-0.41,9.41,0,0,0
130,0,0.004363323,0.053450708,-0.35,-0.31,9.4,0,0,0
131,0,0.001090831,0.059995693,-0.28,-0.58,9.4,0,0,0
132,-0.002181662,-0.008726646,0.013089969,-0.35,-0.53,9.41,0,0,0
133,0,-0.010908308,-0.016362462,-0.28,-0.24,9.39,0,0,0
134,-0.002181662,0.002181662,0.019634954,-0.34,-0.15,9.39,0,0,0
135,-0.002181662,-0.002181662,0.046905724,-0.3,0,9.4,0,0,0
136,-0.001090831,0,0.058904862,-0.34,-0.25,9.39,0,0,0
137,-0.001090831,0.001090831,0.058904862,-0.33,-0.46,9.42,0,0,0
138,0.003272492,-0.002181662,0.008726646,-0.25,-0.3,9.4,0,0,0
139,-0.001090831,0.007635815,0.074176493,-0.35,-0.27,9.39,0,0,0
140,0,0.005454154,0.026179939,-0.38,-0.37,9.39,0,0,0
141,0.001090831,-0.001090831,0.011999139,-0.29,-0.38,9.4,0,0,0
142,0.002181662,-0.004363323,0.026179939,-0.32,-0.53,9.42,0,0,0
143,0.001090831,-0.006544985,0.013089969,-0.26,-0.65,9.41,0,0,0
144,-0.001090831,0.001090831,0.013089969,-0.32,-0.58,9.38,0,0,0
145,0,0.001090831,0.005454154,-0.28,-0.34,9.41,0,0,0
146,-0.002181662,0,0.016362462,-0.39,-0.2,9.41,0,0,0
147,-0.004363323,-0.002181662,0.020725785,-0.32,-0.1,9.38,0,0,0
148,-0.004363323,0,0.022907446,-0.41,0.11,9.41,0,0,0
149,-0.004363323,-0.001090831,0.008726646,-0.25,-0.06,9.41,0,0,0
150,0.001090831,0.002181662,0.05563237,-0.28,-0.1,9.41,0,0,0
151,0.002181662,0,0.065449847,-0.29,-0.63,9.42,0,0,0
152,0.001090831,0.002181662,0.076358155,-0.38,-0.56,9.41,0,0,0
153,-0.001090831,0.001090831,0.065449847,-0.33,-0.56,9.4,0,0,0
154,0.001090831,0.003272492,0.018544123,-0.42,-0.27,9.39,0,0,0
155,-0.003272492,-0.005454154,-0.122173048,-0.37,0,9.41,0,0,0
156,-0.005454154,-0.007635815,-0.155988802,-0.37,-0.08,9.41,0,0,0
157,-0.002181662,-0.001090831,-0.102538094,-0.25,-0.28,9.39,0,0,0
158,0.001090831,-0.001090831,-0.058904862,-0.23,-0.65,9.4,0,0,0
159,-0.001090831,0,-0.043633231,-0.27,-0.5,9.37,0,0,0
160,-0.002181662,0.008726646,0.008726646,-0.3,-0.61,9.38,0,0,0
161,-0.001090831,0.009817477,0.032724923,-0.31,-0.37,9.39,0,0,0
162,-0.002181662,0.006544985,-0.001090831,-0.44,-0.04,9.39,0,0,0
163,-0.003272492,0.004363323,-0.018544123,-0.45,0,9.42,0,0,0
164,-0.003272492,-0.003272492,-0.044724062,-0.35,-0.04,9.43,0,0,0
165,0.002181662,-0.003272492,0.002181662,-0.2,-0.22,9.4,0,0,0
166,0,-0.001090831,0.059995693,-0.32,-0.29,9.39,0,0,0
167,0,0.001090831,0.049087385,-0.42,-0.54,9.42,0,0,0
168,-0.002181662,-0.001090831,-0.013089969,-0.33,-0.31,9.39,0,0,0
169,-0.005454154,-0.002181662,-0.031634093,-0.27,-0.34,9.37,0,0,0
170,-0.007635815,0,-0.02727077,-0.32,-0.24,9.45,0,0,0
171,-0.005454154,-0.003272492,-0.017453293,-0.37,-0.2,9.4,0,0,0
172,-0.006544985,-0.006544985,-0.049087385,-0.34,-0.13,9.39,0,0,0
173,-0.008726646,-0.004363323,-0.019634954,-0.33,-0.21,9.41,0,0,0
174,-0.007635815,-0.003272492,-0.013089969,-0.22,-0.02,9.42,0,0,0
175,-0.004363323,0.002181662,0.045814893,-0.26,-0.3,9.38,0,0,0
176,-0.003272492,0.002181662,0.099265601,-0.33,-0.27,9.4,0,0,0
177,-0.007635815,-0.003272492,0.054541539,-0.44,-0.17,9.4,0,0,0
178,-0.006544985,-0.005454154,-0.044724062,-0.41,-0.27,9.4,0,0,0
179,-0.007635815,-0.008726646,-0.053450708,-0.3,-0.24,9.41,0,0,0
180,-0.005454154,-0.003272492,-0.025089108,-0.25,-0.24,9.39,0,0,0
181,-0.005454154,0.003272492,0.004363323,-0.34,-0.36,9.4,0,0,0
182,-0.006544985,-0.002181662,-0.029452431,-0.32,-0.25,9.41,0,0,0
183,-0.009817477,0.001090831,-0.049087385,-0.25,-0.07,9.39,0,0,0
184,-0.004363323,0,0.017453293,-0.3,-0.11,9.4,0,0,0
185,-0.004363323,-0.004363323,0.034906585,-0.38,-0.33,9.43,0,0,0
186,-0.005454154,-0.006544985,-0.009817477,-0.33,-0.44,9.43,0,0,0
187,-0.005454154,-0.006544985,-0.053450708,-0.36,-0.47,9.37,0,0,0
188,-0.004363323,-0.007635815,-0.065449847,-0.38,-0.34,9.39,0,0,0
189,-0.007635815,-0.001090831,-0.05563237,-0.24,-0.31,9.41,0,0,0
190,-0.007635815,0.001090831,-0.006544985,-0.31,-0.13,9.39,0,0,0
191,-0.005454154,0.002181662,-0.010908308,-0.35,-0.17,9.44,0,0,0
192,-0.004363323,0.001090831,-0.02727077,-0.28,-0.24,9.42,0,0,0
193,-0.005454154,0.002181662,-0.008726646,-0.32,-0.32,9.4,0,0,0
194,-0.005454154,0.003272492,0.0283616,-0.35,-0.44,9.39,0,0,0
195,-0.008726646,0,0.011999139,-0.36,-0.45,9.41,0,0,0
196,-0.006544985,-0.003272492,-0.020725785,-0.36,-0.4,9.41,0,0,0
197,-0.006544985,-0.005454154,-0.05563237,-0.31,-0.35,9.39,0,0,0
198,-0.009817477,-0.006544985,-0.051269047,-0.28,-0.42,9.39,0,0,0
199,-0.009817477,0,-0.001090831,-0.3,-0.3,9.41,0,0,0
200,-0.009817477,-0.001090831,0.016362462,-0.32,-0.36,9.42,0,0,0
201,-0.008726646,0,0.02727077,-0.41,-0.3,9.39,0,0,0
202,-0.010908308,-0.004363323,-0.052359878,-0.38,-0.19,9.41,0,0,0
203,-0.008726646,-0.006544985,-0.049087385,-0.33,-0.27,9.42,0,0,0
204,-0.009817477,0,-0.044724062,-0.33,-0.38,9.43,0,0,0
205,-0.009817477,-0.001090831,-0.017453293,-0.19,-0.26,9.36,0,0,0
206,-0.0141808,0.006544985,-0.002181662,-0.22,-0.34,9.4,0,0,0
207,-0.0141808,0.002181662,-0.011999139,-0.35,-0.47,9.41,0,0,0
208,-0.007635815,0.002181662,-0.038179077,-0.4,-0.43,9.38,0,0,0
209,-0.006544985,0.004363323,-0.031634093,-0.41,-0.4,9.41,0,0,0
210,-0.009817477,0.002181662,-0.025089108,-0.33,-0.45,9.39,0,0,0
211,-0.011999139,0.005454154,-0.061086524,-0.31,-0.41,9.41,0,0,0
212,-0.008726646,-0.001090831,-0.061086524,-0.23,-0.38,9.38,0,0,0
213,-0.006544985,0.002181662,-0.050178216,-0.27,-0.32,9.37,0,0,0
214,-0.007635815,0.005454154,-0.0283616,-0.38,-0.47,9.39,0,0,0
215,-0.005454154,-0.003272492,-0.051269047,-0.49,-0.41,9.39,0,0,0
216,-0.001090831,-0.006544985,-0.079630647,-0.43,-0.28,9.4,0,0,0
217,0.003272492,-0.001090831,-0.104719755,-0.27,-0.35,9.41,0,0,0
218,0.001090831,0.002181662,-0.081812309,-0.19,-0.33,9.39,0,0,0
219,0.001090831,0,-0.045814893,-0.26,-0.38,9.39,0,0,0
220,0.001090831,0.001090831,-0.032724923,-0.26,-0.2,9.36,0,0,0
221,-0.001090831,-0.003272492,-0.037088247,-0.41,-0.3,9.37,0,0,0
222,0.002181662,-0.008726646,-0.077448986,-0.22,-0.13,9.39,0,0,0
223,0.002181662,-0.005454154,-0.075267324,-0.22,-0.19,9.41,0,0,0
224,0,-0.001090831,-0.030543262,-0.19,-0.09,9.39,0,0,0
225,0,0.002181662,0.007635815,-0.4,-0.14,9.43,0,0,0
226,0.004363323,-0.003272492,-0.034906585,-0.34,-0.22,9.42,0,0,0
227,0.001090831,-0.005454154,-0.049087385,-0.39,-0.21,9.41,0,0,0
228,0.002181662,-0.011999139,-0.100356432,-0.29,-0.28,9.38,0,0,0
229,0.003272492,-0.006544985,-0.091629786,-0.25,-0.42,9.39,0,0,0
230,-0.001090831,-0.001090831,-0.063268185,-0.26,-0.2,9.41,0,0,0
231,-0.002181662,0.002181662,-0.04145157,-0.32,-0.18,9.39,0,0,0
232,0,0.002181662,-0.034906585,-0.32,-0.12,9.39,0,0,0
233,0.003272492,0.005454154,-0.031634093,-0.25,0,9.42,0,0,0
234,0.001090831,0.003272492,-0.009817477,-0.34,-0.32,9.41,0,0,0
235,0,-0.001090831,0.011999139,-0.3,-0.26,9.39,0,0,0
236,0.002181662,0.001090831,0.007635815,-0.35,-0.35,9.41,0,0,0
237,0.003272492,-0.003272492,-0.052359878,-0.33,-0.32,9.43,0,0,0
238,-0.001090831,-0.001090831,-0.057814031,-0.32,-0.33,9.41,0,0,0
239,0.003272492,0,-0.020725785,-0.33,-0.32,9.4,0,0,0
240,0.001090831,-0.002181662,-0.017453293,-0.31,-0.36,9.4,0,0,0
241,-0.001090831,-0.001090831,-0.026179939,-0.33,-0.35,9.42,0,0,0
242,0.002181662,0,-0.033815754,-0.36,-0.48,9.4,0,0,0
243,0,0,-0.029452431,-0.22,-0.23,9.39,0,0,0
244,-0.004363323,0.005454154,0.007635815,-0.3,-0.28,9.41,0,0,0
245,-0.001090831,0.005454154,0.039269908,-0.34,-0.31,9.4,0,0,0
246,0.001090831,0.001090831,0.022907446,-0.38,-0.41,9.41,0,0,0
247,0.002181662,-0.001090831,-0.015271631,-0.39,-0.37,9.4,0,0,0
248,0.001090831,-0.001090831,-0.062177355,-0.26,-0.1,9.41,0,0,0
249,0.002181662,-0.002181662,-0.063268185,-0.34,-0.36,9.38,0,0,0
250,0.002181662,-0.001090831,-0.049087385,-0.27,-0.26,9.39,0,0,0
251,0.003272492,0.001090831,-0.017453293,-0.29,-0.3,9.4,0,0,0
252,0.002181662,0.007635815,0,-0.37,-0.29,9.41,0,0,0
253,-0.003272492,0.006544985,0.016362462,-0.35,-0.23,9.39,0,0,0
254,0.001090831,0.001090831,0.019634954,-0.33,-0.22,9.38,0,0,0
255,0.002181662,0,-0.008726646,-0.31,-0.36,9.4,0,0,0
256,0.001090831,-0.003272492,-0.009817477,-0.3,-0.35,9.42,0,0,0
257,0,0,0.005454154,-0.43,-0.4,9.4,0,0,0
258,0,-0.006544985,-0.023998277,-0.21,-0.43,9.41,0,0,0
259,0.001090831,0,-0.037088247,-0.33,-0.26,9.39,0,0,0
260,-0.002181662,0.002181662,-0.006544985,-0.35,-0.36,9.42,0,0,0
261,-0.002181662,0.004363323,0.007635815,-0.32,-0.07,9.37,0,0,0
262,-0.002181662,-0.006544985,-0.013089969,-0.37,-0.22,9.43,0,0,0
263,-0.002181662,-0.003272492,-0.067631509,-0.34,-0.27,9.43,0,0,0
264,0,-0.005454154,-0.06981317,-0.27,-0.37,9.4,0,0,0
265,-0.001090831,-0.005454154,-0.050178216,-0.34,-0.51,9.39,0,0,0
266,0.001090831,0.001090831,-0.042542401,-0.32,-0.22,9.4,0,0,0
267,-0.004363323,0.002181662,-0.031634093,-0.36,-0.26,9.42,0,0,0
268,-0.007635815,-0.002181662,-0.026179939,-0.39,-0.35,9.39,0,0,0
269,-0.003272492,-0.002181662,-0.003272492,-0.36,-0.1,9.4,0,0,0
270,0.004363323,0,-0.008726646,-0.3,-0.42,9.41,0,0,0
271,0,-0.003272492,0.008726646,-0.32,-0.39,9.4,0,0,0
272,-0.001090831,-0.002181662,-0.017453293,-0.29,-0.31,9.4,0,0,0
273,-0.002181662,-0.004363323,-0.050178216,-0.34,-0.15,9.39,0,0,0
274,0,-0.003272492,-0.062177355,-0.33,-0.16,9.4,0,0,0
275,-0.002181662,-0.002181662,-0.050178216,-0.35,-0.21,9.38,0,0,0
276,0,-0.003272492,-0.021816616,-0.22,-0.21,9.43,0,0,0
277,0.001090831,-0.004363323,0.011999139,-0.23,-0.31,9.41,0,0,0
278,-0.001090831,0.001090831,0.042542401,-0.38,-0.37,9.43,0,0,0
279,0.002181662,-0.001090831,0.004363323,-0.36,-0.27,9.38,0,0,0
280,-0.002181662,-0.002181662,-0.026179939,-0.35,-0.21,9.39,0,0,0
281,-0.005454154,-0.005454154,-0.023998277,-0.3,-0.28,9.42,0,0,0
282,0,-0.001090831,-0.005454154,-0.36,-0.29,9.4,0,0,0
283,-0.001090831,-0.004363323,-0.009817477,-0.35,-0.15,9.39,0,0,0
284,-0.001090831,-0.005454154,-0.037088247,-0.3,-0.26,9.39,0,0,0
285,0.002181662,-0.008726646,-0.035997416,-0.3,-0.34,9.41,0,0,0
286,0.004363323,-0.009817477,-0.018544123,-0.32,-0.41,9.42,0,0,0
287,-0.003272492,-0.002181662,0.0141808,-0.35,-0.29,9.41,0,0,0
288,-0.001090831,0.004363323,0.035997416,-0.23,-0.19,9.4,0,0,0
289,0.001090831,0.005454154,0.068722339,-0.4,-0.15,9.39,0,0,0
290,0.006544985,-0.003272492,0.011999139,-0.36,-0.28,9.39,0,0,0
291,0.009817477,-0.003272492,-0.004363323,-0.3,-0.32,9.39,0,0,0
292,0.005454154,-0.003272492,-0.009817477,-0.23,-0.5,9.39,0,0,0
293,0.008726646,-0.003272492,0.011999139,-0.3,-0.62,9.43,0,0,0
294,0.005454154,-0.001090831,-0.003272492,-0.39,-0.45,9.39,0,0,0
295,0.004363323,-0.008726646,0.019634954,-0.31,-0.24,9.41,0,0,0
296,0.006544985,-0.004363323,0.046905724,-0.33,-0.11,9.4,0,0,0
297,0.001090831,-0.006544985,0.035997416,-0.37,-0.13,9.4,0,0,0
298,0.006544985,-0.005454154,0.040360739,-0.34,-0.47,9.41,0,0,0
299,0.005454154,-0.004363323,0.040360739,-0.42,-0.67,9.4,0,0,0
300,0.008726646,-0.008726646,-0.001090831,-0.29,-0.46,9.41,0,0,0
301,-0.001090831,-0.002181662,-0.009817477,-0.21,-0.25,9.39,0,0,0
302,-0.001090831,-0.005454154,0.010908308,-0.33,-0.14,9.41,0,0,0
303,0.003272492,-0.004363323,-0.001090831,-0.39,-0.31,9.43,0,0,0
304,-0.001090831,-0.007635815,0.002181662,-0.32,-0.06,9.41,0,0,0
305,0,-0.002181662,-0.011999139,-0.27,-0.18,9.41,0,0,0
306,0,0,0.021816616,-0.27,-0.11,9.39,0,0,0
307,-0.002181662,-0.004363323,0.039269908,-0.32,-0.28,9.4,0,0,0
308,0.001090831,-0.001090831,0.029452431,-0.37,-0.23,9.38,0,0,0
309,-0.006544985,-0.003272492,0.026179939,-0.33,-0.3,9.4,0,0,0
310,-0.005454154,-0.004363323,0.003272492,-0.33,0.02,9.38,0,0,0
311,-0.004363323,-0.007635815,-0.050178216,-0.36,-0.23,9.43,0,0,0
312,-0.004363323,0.001090831,-0.038179077,-0.3,-0.16,9.43,0,0,0
313,-0.005454154,0.002181662,-0.009817477,-0.27,-0.01,9.44,0,0,0
314,-0.005454154,0.002181662,0.0141808,-0.33,-0.17,9.41,0,0,0
315,-0.003272492,0.001090831,0.049087385,-0.38,-0.24,9.42,0,0,0
316,-0.004363323,-0.003272492,-0.004363323,-0.36,-0.22,9.36,0,0,0
317,-0.001090831,-0.004363323,-0.040360739,-0.33,-0.39,9.42,0,0,0
318,0,-0.004363323,-0.029452431,-0.29,-0.22,9.39,0,0,0
319,-0.003272492,0.002181662,-0.013089969,-0.34,-0.37,9.42,0,0,0
320,-0.004363323,0.002181662,0.018544123,-0.32,-0.28,9.44,0,0,0
321,-0.002181662,0.002181662,0.0141808,-0.3,-0.2,9.4,0,0,0
322,-0.005454154,0.004363323,0.013089969,-0.42,-0.33,9.4,0,0,0
323,-0.003272492,-0.004363323,-0.042542401,-0.3,-0.2,9.38,0,0,0
324,-0.001090831,-0.001090831,-0.010908308,-0.31,-0.44,9.41,0,0,0
325,-0.002181662,0.001090831,0.044724062,-0.33,-0.51,9.42,0,0,0
326,-0.003272492,0,0.016362462,-0.27,-0.4,9.4,0,0,0
327,-0.004363323,0.003272492,0.010908308,-0.27,-0.36,9.38,0,0,0
328,-0.006544985,0,-0.010908308,-0.31,-0.19,9.39,0,0,0
329,-0.006544985,0.002181662,0.020725785,-0.42,-0.23,9.41,0,0,0
330,-0.008726646,-0.002181662,-0.037088247,-0.35,-0.29,9.39,0,0,0
331,-0.005454154,-0.003272492,-0.059995693,-0.27,-0.49,9.42,0,0,0
332,-0.001090831,-0.002181662,-0.052359878,-0.23,-0.53,9.4,0,0,0
333,-0.006544985,0.003272492,-0.025089108,-0.32,-0.34,9.39,0,0,0
334,-0.005454154,0,-0.013089969,-0.34,-0.32,9.41,0,0,0
335,-0.006544985,-0.005454154,-0.021816616,-0.43,-0.2,9.4,0,0,0
336,-0.008726646,-0.004363323,-0.037088247,-0.33,-0.33,9.4,0,0,0
337,-0.008726646,-0.003272492,-0.043633231,-0.23,-0.29,9.39,0,0,0
338,-0.008726646,0.002181662,0.011999139,-0.3,-0.42,9.39,0,0,0
339,-0.009817477,0,-0.025089108,-0.21,-0.43,9.4,0,0,0
340,-0.009817477,0,-0.039269908,-0.38,-0.45,9.39,0,0,0
341,-0.007635815,0,-0.038179077,-0.33,-0.1,9.39,0,0,0
342,-0.005454154,0.001090831,-0.021816616,-0.41,-0.15,9.39,0,0,0
343,-0.007635815,-0.006544985,-0.017453293,-0.35,-0.11,9.41,0,0,0
344,-0.007635815,-0.003272492,-0.047996554,-0.26,-0.45,9.4,0,0,0
345,-0.007635815,0.003272492,-0.034906585,-0.35,-0.43,9.39,0,0,0
346,-0.008726646,-0.001090831,-0.030543262,-0.33,-0.45,9.4,0,0,0
347,-0.007635815,-0.002181662,-0.015271631,-0.24,-0.33,9.4,0,0,0
348,-0.006544985,-0.001090831,-0.005454154,-0.26,-0.36,9.4,0,0,0
349,-0.009817477,0.001090831,-0.001090831,-0.33,-0.58,9.41,0,0,0
350,-0.011999139,0.003272492,0.050178216,-0.45,-0.65,9.41,0,0,0
351,-0.010908308,-0.001090831,0.015271631,-0.52,-0.6,9.41,0,0,0
352,-0.007635815,0.003272492,0.05563237,-0.45,-0.44,9.39,0,0,0
353,-0.008726646,0.001090831,-0.011999139,-0.36,-0.28,9.4,0,0,0
354,-0.007635815,-0.003272492,-0.017453293,-0.4,-0.46,9.41,0,0,0
355,-0.009817477,-0.004363323,-0.056723201,-0.22,-0.3,9.39,0,0,0
356,-0.009817477,-0.008726646,-0.042542401,-0.35,-0.09,9.41,0,0,0
357,-0.008726646,0.006544985,0.050178216,-0.31,-0.04,9.39,0,0,0
358,-0.007635815,0.001090831,0.082903139,-0.39,-0.11,9.42,0,0,0
359,-0.005454154,-0.001090831,0.062177355,-0.17,0,9.41,0,0,0
360,-0.007635815,-0.004363323,-0.081812309,-0.41,-0.42,9.42,0,0,0
361,-0.005454154,-0.005454154,-0.063268185,-0.19,-0.11,9.4,0,0,0
362,-0.009817477,-0.002181662,-0.034906585,-0.21,-0.32,9.41,0,0,0
363,-0.008726646,0.004363323,0.017453293,-0.32,-0.06,9.38,0,0,0
364,-0.006544985,0.002181662,0.022907446,-0.45,-0.29,9.4,0,0,0
365,-0.005454154,-0.003272492,-0.033815754,-0.33,-0.3,9.4,0,0,0
366,-0.004363323,-0.004363323,-0.003272492,-0.39,-0.29,9.4,0,0,0
367,-0.004363323,-0.003272492,-0.0283616,-0.25,-0.24,9.41,0,0,0
368,-0.001090831,-0.001090831,0.025089108,-0.29,-0.47,9.41,0,0,0
369,-0.002181662,-0.001090831,0.039269908,-0.34,-0.41,9.43,0,0,0
370,-0.002181662,-0.003272492,0.046905724,-0.33,-0.24,9.37,0,0,0
371,-0.005454154,0.003272492,0.061086524,-0.33,-0.35,9.39,0,0,0
372,-0.004363323,0.004363323,0.099265601,-0.27,-0.32,9.39,0,0,0
373,-0.005454154,0.006544985,0.131990525,-0.35,-0.48,9.4,0,0,0
374,-0.003272492,0.002181662,0.130899694,-0.24,-0.43,9.4,0,0,0
375,-0.003272492,0.001090831,0.138535509,-0.35,-0.44,9.4,0,0,0
376,-0.004363323,-0.003272492,0.11126474,-0.45,-0.17,9.42,0,0,0
377,-0.003272492,-0.007635815,0.004363323,-0.43,-0.46,9.38,0,0,0
378,-0.004363323,-0.010908308,-0.025089108,-0.27,-0.24,9.39,0,0,0
379,-0.007635815,-0.001090831,0.002181662,-0.41,-0.58,9.4,0,0,0
380,-0.005454154,0.008726646,0.056723201,-0.3,-0.23,9.4,0,0,0
381,-0.004363323,0.006544985,0.05563237,-0.25,-0.31,9.43,0,0,0
382,-0.004363323,0.006544985,0.08399397,-0.49,-0.68,9.4,0,0,0
383,-0.010908308,0.004363323,0.02727077,-0.39,-0.27,9.42,0,0,0
384,-0.011999139,0.010908308,-0.015271631,-0.23,-0.04,9.39,0,0,0
385,-0.008726646,0.003272492,0.008726646,-0.22,-0.09,9.39,0,0,0
386,-0.005454154,0.004363323,0.035997416,-0.4,-0.29,9.37,0,0,0
387,-0.005454154,-0.006544985,-0.032724923,-0.27,-0.45,9.39,0,0,0
388,-0.008726646,-0.008726646,-0.034906585,-0.28,-0.37,9.4,0,0,0
389,-0.005454154,-0.004363323,0.011999139,-0.33,-0.42,9.44,0,0,0
390,-0.005454154,0.003272492,0.032724923,-0.33,-0.47,9.42,0,0,0
391,-0.003272492,0.001090831,0.057814031,-0.24,-0.45,9.41,0,0,0
392,-0.004363323,0.005454154,0.068722339,-0.43,-0.37,9.39,0,0,0
393,-0.006544985,0,0.032724923,-0.39,-0.42,9.41,0,0,0
394,-0.004363323,-0.002181662,-0.005454154,-0.24,-0.28,9.39,0,0,0
395,-0.001090831,0.001090831,0.020725785,-0.42,-0.49,9.43,0,0,0
396,-0.004363323,0.005454154,0.007635815,-0.38,-0.39,9.4,0,0,0
397,-0.004363323,0.004363323,0.039269908,-0.4,-0.27,9.41,0,0,0
398,-0.001090831,-0.002181662,-0.02727077,-0.38,-0.35,9.39,0,0,0
399,-0.003272492,0,-0.02727077,-0.28,-0.16,9.39,0,0,0
400,-0.003272492,0,-0.021816616,-0.26,-0.12,9.39,0,0,0
401,0,0.001090831,-0.011999139,-0.3,-0.19,9.43,0,0,0
402,0.001090831,0.003272492,0.015271631,-0.35,-0.36,9.42,0,0,0
403,-0.002181662,0.003272492,-0.004363323,-0.27,-0.29,9.38,0,0,0
404,0,-0.001090831,0.019634954,-0.29,-0.52,9.4,0,0,0
405,-0.002181662,0.002181662,0.007635815,-0.39,-0.4,9.43,0,0,0
406,-0.002181662,0.003272492,-0.002181662,-0.43,-0.22,9.38,0,0,0
407,0.001090831,0,-0.031634093,-0.4,-0.2,9.39,0,0,0
408,-0.001090831,-0.005454154,-0.089448124,-0.25,-0.22,9.41,0,0,0
409,-0.003272492,-0.003272492,-0.058904862,-0.31,-0.44,9.41,0,0,0
410,-0.001090831,-0.003272492,-0.030543262,-0.33,-0.66,9.39,0,0,0
411,-0.002181662,-0.003272492,-0.003272492,-0.27,-0.37,9.41,0,0,0
412,-0.002181662,0.001090831,0.015271631,-0.37,-0.38,9.39,0,0,0
413,0.001090831,0.001090831,0.039269908,-0.41,-0.22,9.39,0,0,0
414,0.003272492,-0.001090831,0.002181662,-0.39,-0.45,9.39,0,0,0
415,0,-0.001090831,0.011999139,-0.3,-0.38,9.41,0,0,0
416,-0.004363323,0.003272492,0.010908308,-0.33,-0.31,9.41,0,0,0
417,-0.004363323,0.007635815,0.023998277,-0.22,0.02,9.43,0,0,0
418,0.001090831,0.002181662,0.093811447,-0.33,-0.44,9.39,0,0,0
419,0.002181662,0.006544985,0.094902278,-0.35,-0.43,9.4,0,0,0
420,0.005454154,0.002181662,0.09817477,-0.37,-0.62,9.42,0,0,0
421,-0.001090831,0.002181662,0.070904001,-0.49,-0.57,9.38,0,0,0
422,0.005454154,0.008726646,0.049087385,-0.44,-0.37,9.43,0,0,0
423,0.009817477,0.004363323,0.015271631,-0.43,-0.16,9.39,0,0,0
424,0.007635815,-0.003272492,0.005454154,-0.31,-0.55,9.39,0,0,0
425,0.009817477,0,0.016362462,-0.33,-0.49,9.39,0,0,0
426,0.004363323,0.002181662,0.038179077,-0.22,-0.25,9.4,0,0,0
427,0.005454154,0.002181662,0.039269908,-0.42,-0.41,9.4,0,0,0
428,0.006544985,-0.003272492,0.047996554,-0.33,-0.06,9.39,0,0,0
429,0.008726646,-0.005454154,0.035997416,-0.39,-0.64,9.39,0,0,0
430,0.007635815,-0.008726646,0.021816616,-0.5,-0.32,9.42,0,0,0
431,0.009817477,-0.013089969,-0.062177355,-0.35,-0.23,9.46,0,0,0
432,0.005454154,-0.013089969,-0.093811447,-0.28,-0.26,9.41,0,0,0
433,-0.001090831,-0.007635815,-0.095993109,-0.14,-0.22,9.41,0,0,0
434,0.005454154,-0.001090831,-0.032724923,-0.32,-0.56,9.4,0,0,0
435,0.008726646,0.001090831,0.016362462,-0.34,-0.12,9.39,0,0,0
436,0.006544985,-0.002181662,-0.004363323,-0.4,-0.42,9.37,0,0,0
437,0.007635815,-0.001090831,-0.005454154,-0.34,0.03,9.4,0,0,0
438,0.008726646,0.004363323,0.02727077,-0.4,-0.22,9.41,0,0,0
439,0.008726646,0.004363323,0.053450708,-0.39,-0.45,9.44,0,0,0
440,0.005454154,0,0.026179939,-0.25,-0.34,9.42,0,0,0
441,0.002181662,0,0.029452431,-0.31,-0.33,9.39,0,0,0
442,0.003272492,0.003272492,0.026179939,-0.38,-0.6,9.42,0,0,0
443,0.005454154,-0.001090831,-0.007635815,-0.38,-0.33,9.4,0,0,0
444,0.003272492,0.005454154,-0.005454154,-0.39,-0.25,9.4,0,0,0
445,0.004363323,0.003272492,-0.017453293,-0.38,-0.27,9.4,0,0,0
446,0.001090831,-0.001090831,-0.020725785,-0.39,-0.36,9.41,0,0,0
447,0.001090831,-0.008726646,-0.04145157,-0.23,-0.04,9.4,0,0,0
448,0.007635815,-0.002181662,-0.0283616,-0.35,-0.29,9.43,0,0,0
449,0.007635815,0.002181662,-0.003272492,-0.33,-0.36,9.41,0,0,0
450,0.002181662,0,0.002181662,-0.33,-0.56,9.42,0,0,0
451,0.001090831,0,0,-0.33,-0.46,9.41,0,0,0
452,0.003272492,0.001090831,0.002181662,-0.27,-0.37,9.42,0,0,0
453,0.002181662,0.001090831,0.018544123,-0.46,-0.04,9.39,0,0,0
454,-0.005454154,0.001090831,0.0283616,-0.49,-0.2,9.41,0,0,0
455,-0.002181662,-0.001090831,-0.017453293,-0.45,-0.08,9.39,0,0,0
456,-0.006544985,-0.010908308,-0.092720617,-0.37,-0.31,9.4,0,0,0
457,-0.006544985,-0.009817477,-0.05563237,-0.29,-0.38,9.39,0,0,0
458,-0.005454154,-0.004363323,-0.042542401,-0.33,-0.24,9.44,0,0,0
459,-0.004363323,0.002181662,-0.003272492,-0.33,-0.22,9.42,0,0,0
460,-0.006544985,0.002181662,-0.003272492,-0.32,-0.19,9.41,0,0,0
461,-0.004363323,-0.006544985,0.003272492,-0.35,-0.4,9.38,0,0,0
462,-0.005454154,-0.001090831,-0.002181662,-0.35,-0.36,9.37,0,0,0
463,-0.007635815,-0.001090831,0.006544985,-0.37,-0.26,9.42,0,0,0
464,-0.005454154,-0.003272492,0.001090831,-0.31,-0.17,9.4,0,0,0
465,-0.004363323,0.001090831,-0.017453293,-0.34,-0.2,9.39,0,0,0
466,0,-0.002181662,-0.003272492,-0.35,-0.51,9.41,0,0,0
467,-0.002181662,-0.001090831,0.0283616,-0.33,-0.51,9.43,0,0,0
468,-0.003272492,0,0.040360739,-0.35,-0.42,9.37,0,0,0
469,-0.001090831,0.004363323,0.05563237,-0.4,-0.42,9.39,0,0,0
470,-0.002181662,0,0.045814893,-0.4,-0.24,9.41,0,0,0
471,-0.005454154,0.002181662,0.006544985,-0.37,-0.44,9.42,0,0,0
472,-0.002181662,-0.004363323,-0.011999139,-0.32,-0.24,9.37,0,0,0
473,-0.004363323,-0.002181662,-0.015271631,-0.33,-0.32,9.38,0,0,0
474,-0.004363323,0.002181662,0.013089969,-0.34,-0.39,9.42,0,0,0
475,-0.008726646,0.001090831,0.029452431,-0.4,-0.53,9.42,0,0,0
476,-0.006544985,-0.001090831,-0.006544985,-0.36,-0.1,9.38,0,0,0
477,-0.006544985,-0.005454154,-0.054541539,-0.35,0,9.4,0,0,0
478,-0.003272492,-0.007635815,-0.062177355,-0.27,-0.05,9.43,0,0,0
479,-0.003272492,-0.007635815,-0.062177355,-0.33,-0.39,9.39,0,0,0
480,-0.004363323,-0.002181662,-0.029452431,-0.39,-0.49,9.41,0,0,0
481,0.010908308,-0.003272492,-0.026179939,-0.17,-0.69,9.44,0,0,0
482,-0.004363323,0.002181662,-0.001090831,-0.38,-0.49,9.39,0,0,0
483,-0.003272492,0.002181662,0.004363323,-0.37,-0.23,9.39,0,0,0
484,-0.007635815,0.001090831,0.017453293,-0.34,-0.46,9.4,0,0,0
485,-0.004363323,0.002181662,0.043633231,-0.32,-0.42,9.4,0,0,0
486,-0.004363323,0.002181662,0.043633231,-0.43,-0.38,9.4,0,0,0
487,-0.006544985,-0.004363323,-0.019634954,-0.35,-0.06,9.42,0,0,0
488,-0.002181662,-0.005454154,-0.059995693,-0.39,-0.03,9.4,0,0,0
489,-0.003272492,-0.006544985,-0.064359016,-0.3,-0.19,9.39,0,0,0
490,0.002181662,0.002181662,-0.02727077,-0.32,-0.39,9.4,0,0,0
491,0,0.004363323,0.004363323,-0.21,-0.51,9.41,0,0,0
492,-0.002181662,0.009817477,0.053450708,-0.34,-0.39,9.39,0,0,0
493,0.002181662,0.006544985,0.042542401,-0.34,-0.35,9.41,0,0,0
494,-0.002181662,-0.003272492,-0.006544985,-0.36,-0.22,9.37,0,0,0
495,0.003272492,-0.002181662,-0.015271631,-0.29,-0.45,9.41,0,0,0
496,-0.006544985,0.001090831,0.015271631,-0.39,-0.73,9.41,0,0,0
497,-0.006544985,0.005454154,0.032724923,-0.42,-0.49,9.39,0,0,0
498,0,0.002181662,0.05563237,-0.42,-0.47,9.44,0,0,0
499,-0.002181662,0.001090831,0.033815754,-0.44,-0.47,9.43,0,0,0
500,-0.001090831,0.011999139,0.02727077,-0.39,-0.44,9.38,0,0,0
501,-0.009817477,0.004363323,0.021816616,-0.43,-0.67,9.39,0,0,0
502,-0.013089969,-0.001090831,0.013089969,-0.45,-0.61,9.38,0,0,0
503,-0.011999139,-0.006544985,-0.007635815,-0.32,-0.28,9.39,0,0,0
504,0,-0.008726646,-0.020725785,-0.36,-0.13,9.39,0,0,0
505,-0.002181662,-0.007635815,-0.025089108,-0.26,-0.13,9.41,0,0,0
506,-0.004363323,-0.002181662,0.008726646,-0.35,-0.44,9.41,0,0,0
507,-0.006544985,-0.001090831,0.010908308,-0.28,-0.34,9.4,0,0,0
508,-0.009817477,0.002181662,0.02727077,-0.35,-0.28,9.38,0,0,0
509,-0.002181662,-0.003272492,0.007635815,-0.43,-0.28,9.36,0,0,0
510,0.002181662,-0.003272492,-0.022907446,-0.36,-0.3,9.43,0,0,0
511,-0.003272492,0,0.011999139,-0.31,-0.39,9.39,0,0,0
512,0.001090831,0.003272492,0.052359878,-0.38,-0.38,9.39,0,0,0
513,-0.004363323,0.005454154,0.06981317,-0.38,-0.54,9.4,0,0,0
514,-0.009817477,0,0.05563237,-0.45,-0.56,9.44,0,0,0
515,-0.016362462,-0.005454154,0.020725785,-0.5,-0.72,9.43,0,0,0
516,0.001090831,-0.007635815,-0.031634093,-0.36,-0.05,9.43,0,0,0
517,0.004363323,-0.009817477,-0.05563237,-0.26,0,9.42,0,0,0
518,-0.001090831,-0.006544985,-0.058904862,-0.31,0,9.4,0,0,0
519,-0.002181662,0.003272492,-0.046905724,-0.33,-0.36,9.4,0,0,0
520,0.003272492,0.006544985,-0.04145157,-0.32,-0.42,9.4,0,0,0
521,0.004363323,0.004363323,-0.030543262,-0.34,-0.3,9.4,0,0,0
522,-0.001090831,0.002181662,0.001090831,-0.36,-0.36,9.41,0,0,0
523,0,0,0.0141808,-0.37,-0.34,9.39,0,0,0
524,0.004363323,-0.003272492,-0.004363323,-0.37,-0.37,9.43,0,0,0
525,0.003272492,-0.006544985,-0.007635815,-0.34,-0.36,9.4,0,0,0
526,0.001090831,-0.003272492,-0.003272492,-0.34,-0.51,9.41,0,0,0
527,-0.003272492,0,0.04145157,-0.33,-0.5,9.41,0,0,0
528,-0.005454154,0.002181662,0.051269047,-0.32,-0.52,9.41,0,0,0
529,-0.007635815,0.005454154,0.061086524,-0.33,-0.49,9.42,0,0,0
530,-0.020725785,0.007635815,0.075267324,-0.37,-0.49,9.39,0,0,0
531,-0.023998277,0.006544985,0.06981317,-0.39,-0.49,9.43,0,0,0
532,-0.018544123,0.004363323,0.068722339,-0.45,-0.49,9.39,0,0,0
533,-0.035997416,-0.001090831,0.045814893,-0.42,-0.62,9.43,0,0,0
534,-0.037088247,0.002181662,0.05563237,-0.39,-0.65,9.37,0,0,0
535,-0.019634954,-0.004363323,-0.008726646,-0.41,-0.44,9.43,0,0,0
536,-0.026179939,-0.003272492,-0.002181662,-0.35,-0.42,9.45,0,0,0
537,-0.022907446,-0.006544985,-0.016362462,-0.39,-0.3,9.44,0,0,0
538,-0.029452431,-0.005454154,-0.04145157,-0.36,-0.39,9.45,0,0,0
539,-0.0283616,-0.004363323,-0.025089108,-0.31,-0.29,9.39,0,0,0
540,-0.019634954,-0.007635815,-0.008726646,-0.16,-0.02,9.4,0,0,0
541,0.017453293,-0.007635815,0.054541539,-0.34,0.1,9.31,0,0,0
542,0.0141808,-0.009817477,-0.003272492,-0.29,0.15,9.4,0,0,0
543,-0.044724062,0.003272492,-0.013089969,-0.33,-0.33,9.41,0,0,0
544,-0.054541539,0.009817477,-0.006544985,-0.36,-0.41,9.39,0,0,0
545,-0.039269908,0.004363323,-0.004363323,-0.35,-0.42,9.35,0,0,0
546,-0.026179939,-0.001090831,-0.005454154,-0.39,-0.41,9.39,0,0,0
547,-0.021816616,-0.005454154,-0.010908308,-0.42,-0.44,9.38,0,0,0
548,0.022907446,-0.006544985,-0.039269908,-0.33,-0.46,9.37,0,0,0
549,0.042542401,-0.004363323,-0.026179939,-0.32,-0.45,9.39,0,0,0
550,0.018544123,0.001090831,-0.008726646,-0.35,-0.38,9.45,0,0,0
551,0.001090831,0.002181662,-0.004363323,-0.36,-0.4,9.41,0,0,0
552,-0.013089969,0.003272492,-0.004363323,-0.36,-0.4,9.39,0,0,0
553,-0.025089108,0.004363323,-0.006544985,-0.35,-0.41,9.4,0,0,0
554,-0.018544123,0.003272492,-0.007635815,-0.37,-0.43,9.39,0,0,0
555,0.003272492,0,0,-0.33,-0.45,9.35,0,0,0
556,0.025089108,0,-0.001090831,-0.33,-0.44,9.39,0,0,0
557,0.033815754,-0.003272492,0.001090831,-0.35,-0.38,9.43,0,0,0
558,0.004363323,0,-0.002181662,-0.36,-0.38,9.43,0,0,0
559,-0.009817477,-0.002181662,0,-0.35,-0.39,9.4,0,0,0
560,-0.005454154,-0.004363323,0.001090831,-0.36,-0.41,9.42,0,0,0
561,0.004363323,-0.004363323,0.002181662,-0.34,-0.39,9.41,0,0,0
562,-0.002181662,-0.002181662,-0.002181662,-0.34,-0.4,9.42,0,0,0
563,-0.016362462,-0.003272492,-0.001090831,-0.34,-0.43,9.39,0,0,0
564,-0.0141808,-0.003272492,-0.002181662,-0.36,-0.44,9.39,0,0,0
565,0.008726646,-0.003272492,0,-0.34,-0.42,9.41,0,0,0
566,0.004363323,0.002181662,0,-0.33,-0.38,9.38,0,0,0
567,-0.001090831,0.002181662,0,-0.35,-0.38,9.43,0,0,0
568,-0.010908308,0,-0.001090831,-0.36,-0.39,9.43,0,0,0
569,-0.021816616,-0.001090831,-0.003272492,-0.35,-0.39,9.44,0,0,0
570,-0.033815754,-0.007635815,-0.004363323,-0.33,-0.43,9.41,0,0,0
571,-0.031634093,-0.004363323,-0.001090831,-0.33,-0.41,9.45,0,0,0
572,-0.046905724,-0.004363323,-0.003272492,-0.35,-0.41,9.44,0,0,0
573,-0.065449847,-0.003272492,-0.04145157,-0.56,-0.26,9.37,0,0,0
574,-0.04145157,-0.006544985,-0.165806279,-0.44,-0.35,9.34,0,0,0
575,-0.063268185,-0.006544985,-0.217075326,-0.36,-0.33,9.48,0,0,0
576,-0.09817477,-0.002181662,-0.164715448,-0.25,-0.61,9.3,0,0,0
577,-0.065449847,-0.004363323,-0.099265601,-0.21,-0.6,9.38,0,0,0
578,-0.030543262,-0.004363323,-0.042542401,-0.29,-0.57,9.35,0,0,0
579,0.037088247,-0.005454154,-0.003272492,-0.34,-0.48,9.42,0,0,0
580,0.0141808,-0.003272492,0.003272492,-0.34,-0.37,9.48,0,0,0
581,-0.073085662,-0.009817477,0.009817477,-0.33,-0.41,9.44,0,0,0
582,-0.091629786,-0.008726646,0.018544123,-0.33,-0.5,9.39,0,0,0
583,-0.071994832,-0.005454154,0.022907446,-0.35,-0.46,9.39,0,0,0
584,-0.043633231,0.001090831,0.003272492,-0.44,-0.45,9.25,0,0,0
585,0.061086524,-0.010908308,-0.126536371,-0.23,0.08,9.71,0,0,0
586,0.022907446,-0.009817477,-0.056723201,-0.27,-0.02,9.22,0,0,0
587,0.019634954,-0.001090831,0.031634093,-0.28,-0.14,9.35,0,0,0
588,0.043633231,0.001090831,0.079630647,-0.28,-0.34,9.48,0,0,0
589,0.0283616,0,0.093811447,-0.45,-0.29,9.38,0,0,0
590,0.058904862,-0.009817477,0.017453293,-0.34,-0.32,9.45,0,0,0
591,0.056723201,-0.010908308,-0.004363323,-0.26,-0.2,9.35,0,0,0
592,0.094902278,-0.006544985,0.002181662,-0.23,-0.33,9.42,0,0,0
593,0.107992247,-0.002181662,0.002181662,-0.32,-0.22,9.34,0,0,0
594,0.09708394,-0.004363323,-0.003272492,-0.41,-0.21,9.44,0,0,0
595,0.038179077,-0.003272492,0.001090831,-0.4,-0.4,9.39,0,0,0
596,0.039269908,-0.004363323,-0.018544123,-0.4,-0.38,9.43,0,0,0
597,0.031634093,0,-0.02727077,-0.23,-0.16,9.38,0,0,0
598,0.030543262,0.004363323,0.006544985,-0.22,-0.19,9.35,0,0,0
599,0.033815754,0,0.067631509,-0.52,-0.53,9.41,0,0,0
600,0.013089969,-0.005454154,0.021816616,-0.29,-0.43,9.4,0,0,0
601,0.040360739,-0.003272492,0.045814893,-0.3,-0.24,9.4,0,0,0
602,0.019634954,0,0.029452431,-0.41,-0.37,9.4,0,0,0
603,0.004363323,0,0.005454154,-0.26,-0.15,9.37,0,0,0
604,0.011999139,0.004363323,0.037088247,-0.37,-0.31,9.41,0,0,0
605,0.005454154,-0.003272492,0.023998277,-0.36,-0.46,9.41,0,0,0
606,-0.001090831,-0.005454154,-0.006544985,-0.34,-0.27,9.42,0,0,0
607,0.002181662,-0.010908308,-0.046905724,-0.28,-0.43,9.43,0,0,0
608,0,-0.003272492,-0.023998277,-0.26,-0.31,9.4,0,0,0
609,0.006544985,-0.005454154,0.016362462,-0.37,-0.41,9.43,0,0,0
610,-0.007635815,-0.002181662,0.015271631,-0.37,-0.33,9.37,0,0,0
611,0.002181662,0.001090831,0.006544985,-0.22,-0.1,9.39,0,0,0
612,-0.015271631,0.005454154,0.039269908,-0.23,-0.46,9.4,0,0,0
613,-0.010908308,0.005454154,0.057814031,-0.4,-0.56,9.45,0,0,0
614,-0.004363323,0.003272492,0.033815754,-0.38,-0.45,9.41,0,0,0
615,-0.0141808,0.005454154,0.008726646,-0.44,-0.51,9.45,0,0,0
616,-0.011999139,0.004363323,-0.007635815,-0.37,-0.25,9.42,0,0,0
617,-0.017453293,0.002181662,0.018544123,-0.26,-0.35,9.39,0,0,0
618,-0.009817477,0.008726646,0.046905724,-0.18,-0.34,9.41,0,0,0
619,-0.0141808,0.004363323,0.067631509,-0.51,-0.64,9.43,0,0,0
620,-0.0141808,0.006544985,-0.010908308,-0.4,-0.09,9.38,0,0,0
621,-0.006544985,0.004363323,-0.003272492,-0.43,-0.48,9.38,0,0,0
622,-0.011999139,-0.003272492,-0.016362462,-0.27,-0.48,9.4,0,0,0
623,-0.0141808,-0.002181662,0.004363323,-0.28,-0.38,9.39,0,0,0
624,-0.002181662,-0.001090831,0.04145157,-0.33,-0.48,9.37,0,0,0
625,-0.005454154,0.003272492,0.044724062,-0.43,-0.41,9.4,0,0,0
626,-0.007635815,0.001090831,0.029452431,-0.38,-0.37,9.41,0,0,0
627,-0.001090831,0,0.031634093,-0.34,-0.39,9.41,0,0,0
628,-0.003272492,-0.001090831,0.009817477,-0.5,-0.33,9.37,0,0,0
629,-0.005454154,-0.005454154,-0.021816616,-0.31,-0.41,9.41,0,0,0
630,0.004363323,-0.004363323,-0.0141808,-0.31,-0.3,9.41,0,0,0
631,0.005454154,-0.006544985,-0.020725785,-0.3,-0.43,9.41,0,0,0
632,0.006544985,-0.003272492,-0.038179077,-0.32,-0.46,9.39,0,0,0
633,0.005454154,-0.003272492,-0.023998277,-0.35,-0.45,9.37,0,0,0
634,0.007635815,-0.009817477,-0.023998277,-0.32,-0.45,9.41,0,0,0
635,0.007635815,0.001090831,0,-0.36,-0.45,9.39,0,0,0
636,0.003272492,-0.002181662,0.003272492,-0.31,-0.42,9.4,0,0,0
637,0.007635815,-0.001090831,-0.005454154,-0.26,-0.31,9.39,0,0,0
638,0.005454154,-0.004363323,-0.022907446,-0.26,-0.29,9.37,0,0,0
639,0.006544985,0.001090831,-0.022907446,-0.33,-0.32,9.4,0,0,0
640,0.009817477,-0.006544985,-0.004363323,-0.33,-0.4,9.42,0,0,0
641,0.008726646,-0.002181662,0.001090831,-0.45,-0.45,9.42,0,0,0
642,0.016362462,-0.004363323,-0.009817477,-0.23,-0.26,9.4,0,0,0
643,0.010908308,-0.004363323,0.007635815,-0.33,-0.32,9.38,0,0,0
644,0.010908308,0,0.017453293,-0.26,-0.42,9.43,0,0,0
645,0.007635815,-0.001090831,0.023998277,-0.33,-0.49,9.4,0,0,0
646,0.005454154,-0.002181662,0.035997416,-0.21,-0.3,9.43,0,0,0
647,0.008726646,-0.003272492,0.053450708,-0.26,-0.39,9.42,0,0,0
648,0.007635815,-0.003272492,0.045814893,-0.41,-0.34,9.4,0,0,0
649,0.007635815,0.001090831,0.015271631,-0.4,-0.34,9.38,0,0,0
650,0.004363323,0.002181662,-0.010908308,-0.42,-0.35,9.38,0,0,0
651,0.006544985,0.001090831,-0.015271631,-0.28,-0.37,9.4,0,0,0
652,0.009817477,0.002181662,-0.003272492,-0.27,-0.3,9.41,0,0,0
653,0.010908308,0.002181662,0.029452431,-0.2,-0.31,9.41,0,0,0
654,0.008726646,-0.002181662,0.04145157,-0.38,-0.44,9.41,0,0,0
655,0.009817477,-0.002181662,-0.023998277,-0.57,-0.57,9.42,0,0,0
656,0.009817477,0.001090831,-0.063268185,-0.4,-0.35,9.39,0,0,0
657,0.008726646,-0.003272492,-0.037088247,-0.29,-0.13,9.4,0,0,0
658,0.0141808,-0.001090831,-0.018544123,-0.39,-0.34,9.39,0,0,0
659,0.013089969,0.002181662,0.007635815,-0.28,-0.39,9.41,0,0,0
660,0.010908308,0,-0.02727077,-0.35,-0.56,9.39,0,0,0
661,0.008726646,-0.001090831,-0.045814893,-0.31,-0.24,9.38,0,0,0
662,0.007635815,0.002181662,-0.011999139,-0.29,-0.33,9.39,0,0,0
663,0.011999139,0,0,-0.26,-0.27,9.41,0,0,0
664,0.009817477,-0.003272492,0.018544123,-0.31,-0.19,9.39,0,0,0
665,0.013089969,-0.001090831,0.007635815,-0.31,-0.27,9.42,0,0,0
666,0.011999139,-0.008726646,0.005454154,-0.39,-0.47,9.44,0,0,0
667,0.011999139,-0.005454154,-0.029452431,-0.43,-0.24,9.38,0,0,0
668,0.010908308,-0.008726646,-0.029452431,-0.35,-0.23,9.4,0,0,0
669,0.013089969,-0.004363323,-0.019634954,-0.18,-0.29,9.41,0,0,0
670,0.011999139,-0.001090831,0.019634954,-0.16,-0.15,9.38,0,0,0
671,0.0141808,-0.002181662,0.023998277,-0.36,-0.36,9.41,0,0,0
672,0.010908308,-0.009817477,-0.010908308,-0.44,-0.36,9.4,0,0,0
673,0.0141808,-0.006544985,-0.019634954,-0.44,-0.37,9.41,0,0,0
674,0.010908308,-0.004363323,-0.030543262,-0.27,-0.29,9.38,0,0,0
675,0.009817477,-0.005454154,-0.011999139,-0.22,-0.28,9.39,0,0,0
676,0.008726646,-0.005454154,-0.010908308,-0.3,-0.32,9.41,0,0,0
677,0.008726646,-0.001090831,-0.019634954,-0.28,-0.42,9.42,0,0,0
678,0.007635815,-0.004363323,-0.011999139,-0.27,-0.12,9.39,0,0,0
679,0.002181662,-0.005454154,0.010908308,-0.26,-0.33,9.4,0,0,0
680,0.005454154,-0.002181662,0.031634093,-0.25,-0.31,9.39,0,0,0
681,0.007635815,-0.006544985,0.022907446,-0.49,-0.48,9.45,0,0,0
682,-0.001090831,-0.007635815,-0.004363323,-0.36,-0.31,9.39,0,0,0
683,-0.004363323,-0.004363323,0.003272492,-0.33,-0.33,9.44,0,0,0
684,-0.006544985,0.001090831,0.016362462,-0.29,-0.29,9.4,0,0,0
685,-0.013089969,0.004363323,0.04145157,-0.29,-0.28,9.39,0,0,0
686,-0.016362462,0.002181662,0.031634093,-0.47,-0.36,9.38,0,0,0
687,-0.015271631,-0.007635815,-0.0283616,-0.45,-0.22,9.42,0,0,0
688,-0.007635815,-0.001090831,-0.040360739,-0.42,-0.24,9.41,0,0,0
689,-0.013089969,0.001090831,-0.045814893,-0.22,-0.22,9.39,0,0,0
690,-0.008726646,0.001090831,-0.038179077,-0.2,-0.25,9.4,0,0,0
691,-0.008726646,0.003272492,-0.044724062,-0.32,-0.33,9.44,0,0,0
692,-0.015271631,0.005454154,-0.050178216,-0.35,-0.26,9.4,0,0,0
693,-0.006544985,0.001090831,-0.047996554,-0.36,-0.49,9.39,0,0,0
694,-0.005454154,0.001090831,-0.046905724,-0.44,-0.59,9.43,0,0,0
695,-0.007635815,0.003272492,-0.056723201,-0.32,-0.42,9.41,0,0,0
696,-0.013089969,-0.003272492,-0.056723201,-0.52,-0.45,9.42,0,0,0
697,-0.008726646,-0.001090831,-0.054541539,-0.45,-0.52,9.42,0,0,0
698,0.003272492,0.001090831,-0.031634093,-0.38,-0.34,9.41,0,0,0
699,0.004363323,0.002181662,-0.016362462,-0.34,-0.44,9.41,0,0,0
700,-0.003272492,-0.001090831,-0.037088247,-0.38,-0.49,9.39,0,0,0
701,-0.002181662,0.001090831,-0.059995693,-0.45,-0.53,9.4,0,0,0
702,-0.001090831,-0.001090831,-0.068722339,-0.27,-0.51,9.4,0,0,0
703,-0.002181662,0.004363323,-0.033815754,-0.23,-0.33,9.39,0,0,0
704,0.004363323,0.003272492,-0.034906585,-0.29,-0.43,9.42,0,0,0
705,0.004363323,0,-0.026179939,-0.37,-0.48,9.41,0,0,0
706,0.004363323,0,-0.056723201,-0.42,-0.45,9.4,0,0,0
707,0.001090831,0.003272492,-0.058904862,-0.37,-0.4,9.39,0,0,0
708,0.008726646,-0.001090831,-0.058904862,-0.28,-0.35,9.41,0,0,0
709,0.005454154,0.001090831,-0.032724923,-0.28,-0.4,9.38,0,0,0
710,0.002181662,-0.002181662,-0.020725785,-0.3,-0.41,9.39,0,0,0
711,0,-0.001090831,-0.039269908,-0.32,-0.31,9.41,0,0,0
712,0.001090831,0.002181662,-0.029452431,-0.48,-0.22,9.43,0,0,0
713,0.001090831,0,-0.042542401,-0.33,-0.32,9.39,0,0,0
714,0.001090831,-0.005454154,-0.007635815,-0.37,-0.58,9.38,0,0,0
715,0.002181662,0.002181662,-0.026179939,-0.35,-0.36,9.42,0,0,0
716,0.004363323,0.001090831,-0.040360739,-0.38,-0.5,9.39,0,0,0
717,0.002181662,-0.001090831,-0.064359016,-0.43,-0.53,9.4,0,0,0
718,-0.002181662,0,-0.058904862,-0.39,-0.31,9.39,0,0,0
719,0.001090831,-0.003272492,-0.04145157,-0.3,-0.23,9.43,0,0,0
720,0.001090831,-0.001090831,-0.007635815,-0.29,-0.11,9.39,0,0,0
721,-0.002181662,0.002181662,0.002181662,-0.31,-0.4,9.4,0,0,0
722,-0.003272492,-0.002181662,0.003272492,-0.24,-0.49,9.4,0,0,0
723,-0.001090831,0,0.015271631,-0.36,-0.42,9.42,0,0,0
724,-0.007635815,-0.007635815,-0.029452431,-0.4,-0.28,9.4,0,0,0
725,-0.003272492,-0.004363323,-0.031634093,-0.35,-0.24,9.41,0,0,0
726,-0.001090831,0,0.005454154,-0.33,-0.27,9.44,0,0,0
727,0.001090831,-0.003272492,0.033815754,-0.37,-0.38,9.42,0,0,0
728,0,-0.004363323,0.035997416,-0.3,-0.3,9.4,0,0,0
729,0.003272492,-0.005454154,0.018544123,-0.46,-0.3,9.41,0,0,0
730,-0.001090831,-0.001090831,0.013089969,-0.31,-0.26,9.39,0,0,0
731,-0.002181662,0.003272492,0.018544123,-0.2,-0.12,9.42,0,0,0
732,0.002181662,-0.001090831,0.037088247,-0.24,-0.24,9.39,0,0,0
733,-0.001090831,0.001090831,0.049087385,-0.24,-0.08,9.39,0,0,0
734,-0.001090831,-0.005454154,0.025089108,-0.41,-0.22,9.4,0,0,0
735,-0.004363323,-0.009817477,0.002181662,-0.53,-0.32,9.42,0,0,0
736,-0.001090831,-0.006544985,-0.001090831,-0.36,-0.18,9.39,0,0,0
737,0.002181662,-0.003272492,-0.004363323,-0.18,-0.36,9.42,0,0,0
738,0.001090831,-0.003272492,0.030543262,-0.08,-0.31,9.4,0,0,0
739,0.001090831,-0.001090831,0.052359878,-0.32,-0.48,9.39,0,0,0
740,-0.002181662,-0.005454154,0.05563237,-0.36,-0.38,9.39,0,0,0
741,-0.004363323,-0.003272492,0.043633231,-0.48,-0.37,9.39,0,0,0
742,-0.003272492,-0.006544985,-0.006544985,-0.43,-0.28,9.44,0,0,0
743,-0.005454154,-0.005454154,-0.018544123,-0.28,-0.22,9.41,0,0,0
744,-0.007635815,-0.002181662,0.0141808,-0.33,-0.33,9.37,0,0,0
745,-0.003272492,0,0.046905724,-0.27,-0.51,9.4,0,0,0
746,-0.005454154,-0.001090831,0.047996554,-0.3,-0.36,9.39,0,0,0
747,-0.004363323,-0.003272492,0.025089108,-0.38,-0.49,9.4,0,0,0
748,-0.005454154,-0.005454154,0.004363323,-0.47,-0.43,9.39,0,0,0
749,-0.007635815,-0.004363323,-0.015271631,-0.37,-0.3,9.37,0,0,0
750,-0.006544985,-0.006544985,-0.020725785,-0.27,-0.3,9.4,0,0,0
751,-0.004363323,-0.003272492,0.004363323,-0.29,-0.45,9.42,0,0,0
752,-0.002181662,0.003272492,0.015271631,-0.3,-0.45,9.41,0,0,0
753,-0.005454154,0.002181662,0.008726646,-0.38,-0.55,9.41,0,0,0
754,-0.007635815,0.003272492,-0.001090831,-0.31,-0.41,9.37,0,0,0
755,-0.002181662,-0.002181662,-0.005454154,-0.39,-0.37,9.4,0,0,0
756,-0.002181662,-0.003272492,-0.015271631,-0.4,-0.48,9.42,0,0,0
757,-0.004363323,-0.003272492,-0.005454154,-0.23,-0.25,9.39,0,0,0
758,0.004363323,0,0.019634954,-0.32,-0.35,9.42,0,0,0
759,0,-0.002181662,-0.007635815,-0.45,-0.43,9.41,0,0,0
760,0,-0.004363323,-0.053450708,-0.36,-0.28,9.4,0,0,0
761,-0.003272492,0,-0.034906585,-0.4,-0.39,9.39,0,0,0
762,-0.002181662,-0.002181662,-0.0283616,-0.35,-0.41,9.42,0,0,0
763,-0.004363323,0.002181662,-0.015271631,-0.3,-0.16,9.4,0,0,0
764,-0.004363323,-0.002181662,-0.033815754,-0.43,-0.04,9.39,0,0,0
765,0,-0.004363323,-0.074176493,-0.21,0.09,9.41,0,0,0
766,0.004363323,-0.003272492,-0.042542401,-0.37,0.01,9.41,0,0,0
767,0,-0.001090831,-0.065449847,-0.25,-0.09,9.39,0,0,0
768,0.002181662,-0.001090831,0.002181662,-0.26,-0.21,9.4,0,0,0
769,0.004363323,0.005454154,0.011999139,-0.19,-0.37,9.41,0,0,0
770,0.006544985,0.001090831,-0.050178216,-0.35,-0.44,9.41,0,0,0
771,0.006544985,-0.005454154,-0.026179939,-0.3,-0.36,9.39,0,0,0
772,0.0141808,-0.002181662,-0.005454154,-0.35,-0.4,9.42,0,0,0
773,0.009817477,0,0.009817477,-0.36,-0.27,9.39,0,0,0
774,0.015271631,-0.001090831,0.025089108,-0.44,-0.38,9.41,0,0,0
775,0.0141808,-0.001090831,0.001090831,-0.3,-0.43,9.39,0,0,0
776,0.016362462,-0.002181662,0.011999139,-0.22,-0.35,9.4,0,0,0
777,0.019634954,0.001090831,0.042542401,-0.21,-0.4,9.4,0,0,0
778,0.017453293,0.002181662,0.079630647,-0.37,-0.69,9.42,0,0,0
779,0.011999139,-0.004363323,0.059995693,-0.42,-0.43,9.37,0,0,0
780,0.009817477,-0.001090831,0.043633231,-0.38,-0.43,9.41,0,0,0
781,0.009817477,-0.001090831,0.050178216,-0.37,-0.27,9.39,0,0,0
782,0.008726646,0.001090831,0.056723201,-0.35,-0.29,9.42,0,0,0
783,0.011999139,-0.008726646,0.067631509,-0.27,-0.33,9.37,0,0,0
784,0.011999139,-0.004363323,0.067631509,-0.47,-0.57,9.39,0,0,0
785,0.011999139,-0.006544985,0.023998277,-0.35,-0.32,9.41,0,0,0
786,0.007635815,0,0.026179939,-0.33,-0.29,9.39,0,0,0
787,0.005454154,-0.001090831,0.031634093,-0.29,-0.3,9.39,0,0,0
788,0.005454154,-0.001090831,0.047996554,-0.42,-0.33,9.36,0,0,0
789,0.007635815,-0.006544985,0.044724062,-0.45,-0.19,9.44,0,0,0
790,0.008726646,-0.006544985,-0.022907446,-0.42,-0.06,9.37,0,0,0
791,0.007635815,-0.003272492,-0.035997416,-0.31,0.01,9.41,0,0,0
792,0.010908308,0.001090831,-0.007635815,-0.24,-0.22,9.42,0,0,0
793,0.008726646,0.002181662,-0.018544123,-0.34,-0.38,9.4,0,0,0
794,0.007635815,0.003272492,-0.039269908,-0.38,-0.24,9.41,0,0,0
795,0.007635815,-0.004363323,-0.093811447,-0.48,-0.17,9.43,0,0,0
796,0.007635815,-0.004363323,-0.100356432,-0.28,0,9.41,0,0,0
797,0.010908308,-0.001090831,-0.065449847,-0.26,-0.26,9.38,0,0,0
798,0.007635815,0.007635815,-0.029452431,-0.26,-0.38,9.39,0,0,0
799,0.006544985,0.008726646,-0.005454154,-0.3,-0.45,9.41,0,0,0
800,0.005454154,0.005454154,-0.005454154,-0.47,-0.5,9.41,0,0,0
801,0.003272492,0.005454154,-0.063268185,-0.34,-0.11,9.39,0,0,0
802,0.004363323,0.009817477,-0.038179077,-0.37,-0.32,9.4,0,0,0
803,-0.001090831,0.004363323,0.013089969,-0.35,-0.36,9.44,0,0,0
804,-0.002181662,0.004363323,0.001090831,-0.27,-0.43,9.44,0,0,0
805,-0.004363323,0.008726646,-0.003272492,-0.25,-0.11,9.4,0,0,0
806,0.002181662,0.002181662,0.030543262,-0.31,-0.25,9.41,0,0,0
807,0.003272492,-0.002181662,0.052359878,-0.44,-0.47,9.44,0,0,0
808,-0.001090831,-0.005454154,0.065449847,-0.4,-0.5,9.37,0,0,0
809,-0.002181662,0.001090831,0.066540678,-0.33,-0.24,9.38,0,0,0
810,0,0.001090831,0.059995693,-0.33,-0.16,9.41,0,0,0
811,0,-0.002181662,0.051269047,-0.39,-0.74,9.4,0,0,0
812,-0.002181662,0,0.042542401,-0.25,-0.35,9.38,0,0,0
813,0.001090831,-0.001090831,0.030543262,-0.39,-0.56,9.4,0,0,0
814,0.001090831,-0.002181662,0.001090831,-0.39,-0.42,9.43,0,0,0
815,0,-0.003272492,-0.020725785,-0.41,-0.62,9.39,0,0,0
816,-0.003272492,-0.003272492,-0.033815754,-0.34,-0.48,9.4,0,0,0
817,-0.002181662,-0.004363323,0.017453293,-0.26,-0.2,9.4,0,0,0
818,0,-0.005454154,0.057814031,-0.4,-0.34,9.4,0,0,0
819,0.003272492,-0.006544985,0.075267324,-0.41,-0.16,9.37,0,0,0
820,0.001090831,-0.007635815,0.04145157,-0.33,-0.23,9.44,0,0,0
821,0.004363323,-0.006544985,0.001090831,-0.37,-0.32,9.4,0,0,0
822,0.003272492,-0.001090831,-0.039269908,-0.33,-0.23,9.41,0,0,0
823,0.001090831,0.002181662,-0.010908308,-0.31,-0.39,9.39,0,0,0
824,-0.002181662,-0.001090831,0.022907446,-0.39,-0.51,9.41,0,0,0
825,0.002181662,-0.001090831,-0.001090831,-0.33,-0.22,9.42,0,0,0
826,0.001090831,-0.004363323,-0.013089969,-0.32,-0.27,9.4,0,0,0
827,0.001090831,-0.003272492,-0.013089969,-0.31,-0.29,9.41,0,0,0
828,0,-0.002181662,-0.009817477,-0.33,-0.26,9.41,0,0,0
829,0.001090831,0,0.003272492,-0.33,-0.25,9.39,0,0,0
830,0.001090831,-0.002181662,0.038179077,-0.32,-0.35,9.4,0,0,0
831,0.004363323,-0.003272492,0.064359016,-0.33,-0.39,9.41,0,0,0
832,0.003272492,0,0.085084801,-0.36,-0.45,9.4,0,0,0
833,0.001090831,-0.003272492,0.080721478,-0.4,-0.39,9.39,0,0,0
834,0,-0.002181662,0.051269047,-0.34,-0.24,9.39,0,0,0
835,0.001090831,-0.001090831,0.002181662,-0.41,0.06,9.41,0,0,0
836,0.003272492,-0.007635815,-0.029452431,-0.41,-0.12,9.44,0,0,0
837,0.001090831,-0.011999139,-0.062177355,-0.31,-0.17,9.41,0,0,0
838,0.002181662,-0.005454154,-0.031634093,-0.26,-0.2,9.39,0,0,0
839,0.003272492,-0.006544985,-0.003272492,-0.21,-0.41,9.4,0,0,0
840,0.001090831,-0.002181662,0.031634093,-0.21,-0.26,9.41,0,0,0
841,-0.001090831,-0.008726646,0.038179077,-0.46,-0.39,9.39,0,0,0
842,0.003272492,-0.006544985,0.019634954,-0.41,-0.29,9.39,0,0,0
843,0.002181662,-0.008726646,0.004363323,-0.27,-0.15,9.41,0,0,0
844,0.001090831,-0.003272492,0.049087385,-0.19,-0.31,9.4,0,0,0
845,0.002181662,-0.001090831,0.092720617,-0.26,-0.37,9.39,0,0,0
846,0.003272492,-0.001090831,0.130899694,-0.35,-0.22,9.4,0,0,0
847,0.006544985,-0.005454154,0.126536371,-0.47,-0.37,9.42,0,0,0
848,0.003272492,-0.005454154,0.114537232,-0.43,-0.28,9.43,0,0,0
849,0,-0.005454154,0.109083078,-0.39,-0.3,9.4,0,0,0
850,-0.001090831,-0.004363323,0.063268185,-0.33,-0.23,9.39,0,0,0
851,-0.003272492,-0.001090831,0.046905724,-0.31,-0.27,9.42,0,0,0
852,0.002181662,-0.006544985,0.010908308,-0.3,-0.34,9.4,0,0,0
853,0.002181662,-0.004363323,-0.011999139,-0.33,-0.43,9.42,0,0,0
854,-0.005454154,-0.001090831,-0.026179939,-0.5,-0.39,9.42,0,0,0
855,0,-0.007635815,-0.146171325,-0.31,-0.02,9.43,0,0,0
856,-0.008726646,-0.006544985,-0.116718894,-0.24,-0.4,9.4,0,0,0
857,-0.004363323,-0.007635815,-0.089448124,-0.2,-0.31,9.41,0,0,0
858,-0.003272492,-0.004363323,0,-0.22,-0.45,9.41,0,0,0
859,-0.003272492,-0.007635815,0.025089108,-0.26,-0.6,9.38,0,0,0
860,-0.004363323,-0.004363323,0.079630647,-0.31,-0.59,9.39,0,0,0
861,-0.002181662,-0.003272492,0.076358155,-0.34,-0.82,9.38,0,0,0
862,-0.004363323,-0.001090831,0.076358155,-0.39,-0.66,9.39,0,0,0
863,-0.007635815,-0.008726646,-0.022907446,-0.38,-0.41,9.41,0,0,0
864,-0.013089969,-0.007635815,-0.093811447,-0.48,-0.06,9.39,0,0,0
865,-0.017453293,-0.004363323,-0.184350402,-0.56,0,9.44,0,0,0
866,-0.020725785,-0.008726646,-0.354520004,-0.34,0.25,9.43,0,0,0
867,-0.015271631,-0.003272492,-0.253072742,-0.08,0.13,9.39,0,0,0
868,-0.013089969,-0.006544985,-0.116718894,-0.08,-0.33,9.4,0,0,0
869,-0.010908308,-0.004363323,0.085084801,-0.24,-0.74,9.39,0,0,0
870,-0.020725785,-0.002181662,0.143989663,-0.31,-0.76,9.39,0,0,0
871,-0.019634954,-0.004363323,0.082903139,-0.42,-0.73,9.39,0,0,0
872,-0.021816616,-0.005454154,0.021816616,-0.4,-0.34,9.38,0,0,0
873,-0.029452431,0.002181662,-0.013089969,-0.34,-0.15,9.43,0,0,0
874,-0.019634954,-0.002181662,-0.009817477,-0.29,-0.18,9.41,0,0,0
875,-0.015271631,-0.004363323,0.010908308,-0.26,-0.3,9.42,0,0,0
876,-0.017453293,-0.003272492,0.038179077,-0.34,-0.42,9.38,0,0,0
877,-0.022907446,0.001090831,0.112355571,-0.34,-0.45,9.43,0,0,0
878,-0.02727077,0.006544985,0.118900555,-0.36,-0.43,9.37,0,0,0
879,-0.035997416,0.008726646,0.118900555,-0.33,-0.48,9.41,0,0,0
880,-0.033815754,0.003272492,0.11126474,-0.41,-0.41,9.41,0,0,0
881,-0.033815754,-0.009817477,0.006544985,-0.29,-0.18,9.39,0,0,0
882,-0.023998277,-0.0141808,-0.067631509,-0.25,-0.23,9.42,0,0,0
883,-0.019634954,-0.007635815,-0.006544985,-0.24,-0.33,9.44,0,0,0
884,-0.009817477,-0.003272492,0.05563237,-0.36,-0.52,9.42,0,0,0
885,-0.008726646,-0.003272492,0.016362462,-0.32,-0.68,9.38,0,0,0
886,-0.005454154,-0.003272492,0.020725785,-0.3,-0.66,9.39,0,0,0
887,0.001090831,0.001090831,0.044724062,-0.32,-0.33,9.44,0,0,0
888,-0.001090831,-0.002181662,0.023998277,-0.3,-0.31,9.41,0,0,0
889,-0.010908308,0,0.018544123,-0.31,-0.31,9.41,0,0,0
890,-0.016362462,-0.003272492,-0.0283616,-0.33,-0.36,9.41,0,0,0
891,-0.010908308,0,-0.046905724,-0.39,-0.32,9.41,0,0,0
892,-0.005454154,-0.006544985,-0.068722339,-0.27,-0.35,9.39,0,0,0
893,-0.001090831,-0.005454154,-0.025089108,-0.28,-0.43,9.42,0,0,0
894,0.005454154,-0.002181662,0.031634093,-0.31,-0.39,9.42,0,0,0
895,0.005454154,-0.002181662,0.044724062,-0.3,-0.38,9.43,0,0,0
896,-0.004363323,0.004363323,0.020725785,-0.34,-0.34,9.39,0,0,0
897,-0.003272492,0.004363323,0.005454154,-0.33,-0.35,9.38,0,0,0
898,-0.001090831,-0.001090831,-0.004363323,-0.33,-0.4,9.41,0,0,0
899,0.004363323,0.002181662,-0.005454154,-0.3,-0.38,9.39,0,0,0
900,0.001090831,0,0,-0.31,-0.35,9.39,0,0,0
901,-0.007635815,-0.001090831,0.009817477,-0.33,-0.32,9.4,0,0,0
902,-0.007635815,-0.003272492,0.005454154,-0.39,-0.18,9.4,0,0,0
903,0.001090831,-0.006544985,0.007635815,-0.3,-0.17,9.4,0,0,0
904,0.002181662,-0.005454154,0.038179077,-0.28,-0.3,9.41,0,0,0
905,-0.002181662,-0.002181662,0.059995693,-0.29,-0.29,9.42,0,0,0
906,-0.004363323,-0.001090831,0.056723201,-0.33,-0.2,9.41,0,0,0
907,-0.007635815,-0.001090831,0.010908308,-0.35,-0.11,9.37,0,0,0
908,-0.007635815,-0.003272492,0.011999139,-0.3,-0.23,9.36,0,0,0
909,-0.003272492,-0.003272492,0.087266463,-0.35,-0.37,9.42,0,0,0
910,-0.002181662,-0.001090831,0.081812309,-0.28,-0.51,9.41,0,0,0
911,-0.005454154,0.001090831,0.091629786,-0.38,-0.72,9.43,0,0,0
912,-0.002181662,0.002181662,0.061086524,-0.32,-0.67,9.41,0,0,0
913,-0.004363323,-0.006544985,0.029452431,-0.3,-0.67,9.39,0,0,0
914,-0.002181662,-0.003272492,0.038179077,-0.33,-0.34,9.36,0,0,0
915,-0.003272492,-0.004363323,0.045814893,-0.31,-0.25,9.42,0,0,0
916,-0.007635815,-0.002181662,0.063268185,-0.29,-0.19,9.4,0,0,0
917,-0.003272492,0,0.086175632,-0.33,-0.46,9.39,0,0,0
918,0.002181662,0.001090831,0.061086524,-0.32,-0.5,9.41,0,0,0
919,0.004363323,-0.002181662,0.031634093,-0.33,-0.38,9.39,0,0,0
920,0.001090831,-0.001090831,0.011999139,-0.32,-0.38,9.41,0,0,0
921,-0.002181662,0.003272492,0.007635815,-0.33,-0.36,9.43,0,0,0
922,-0.003272492,0.002181662,0.001090831,-0.43,-0.22,9.4,0,0,0
923,-0.001090831,-0.002181662,-0.052359878,-0.32,-0.19,9.43,0,0,0
924,0.001090831,-0.013089969,-0.157079633,-0.35,-0.17,9.4,0,0,0
925,0.001090831,-0.009817477,-0.18107791,-0.27,-0.3,9.41,0,0,0
926,0.003272492,-0.004363323,-0.09817477,-0.28,-0.35,9.43,0,0,0
927,0.001090831,-0.003272492,-0.066540678,-0.15,-0.41,9.39,0,0,0
928,0.001090831,0.002181662,0.059995693,-0.39,-0.65,9.4,0,0,0
929,0.002181662,0.003272492,0.033815754,-0.38,-0.57,9.38,0,0,0
930,0,0,0.02727077,-0.36,-0.43,9.39,0,0,0
931,-0.001090831,-0.002181662,0.038179077,-0.34,-0.39,9.39,0,0,0
932,-0.002181662,-0.003272492,0.033815754,-0.3,-0.23,9.41,0,0,0
933,-0.001090831,0.001090831,0.05563237,-0.32,-0.32,9.39,0,0,0
934,0.001090831,0.004363323,0.066540678,-0.31,-0.42,9.43,0,0,0
935,0.001090831,-0.001090831,0.058904862,-0.33,-0.46,9.41,0,0,0
936,0.001090831,0.002181662,0.038179077,-0.34,-0.41,9.41,0,0,0
937,0.001090831,0.002181662,0.023998277,-0.35,-0.36,9.39,0,0,0
938,-0.002181662,0.002181662,0.009817477,-0.35,-0.36,9.39,0,0,0
939,-0.003272492,0.001090831,0.008726646,-0.33,-0.35,9.41,0,0,0
940,0.001090831,-0.003272492,0.015271631,-0.32,-0.39,9.4,0,0,0
941,0.001090831,-0.004363323,0.020725785,-0.32,-0.38,9.41,0,0,0
942,0.003272492,-0.001090831,0.0141808,-0.31,-0.38,9.43,0,0,0
943,0.002181662,0.001090831,0.010908308,-0.34,-0.34,9.38,0,0,0
944,-0.004363323,0.002181662,0.001090831,-0.35,-0.33,9.37,0,0,0
945,-0.004363323,-0.001090831,0,-0.34,-0.35,9.43,0,0,0
946,-0.001090831,-0.001090831,-0.002181662,-0.4,-0.13,9.41,0,0,0
947,0,-0.004363323,-0.057814031,-0.24,-0.29,9.39,0,0,0
948,-0.004363323,-0.004363323,-0.071994832,-0.27,-0.23,9.39,0,0,0
949,-0.003272492,-0.004363323,-0.025089108,-0.32,-0.39,9.44,0,0,0
950,-0.001090831,-0.002181662,-0.005454154,-0.36,-0.49,9.38,0,0,0
951,-0.001090831,-0.001090831,-0.023998277,-0.35,-0.41,9.42,0,0,0
952,-0.001090831,0,-0.042542401,-0.29,-0.29,9.41,0,0,0
953,-0.002181662,0,-0.030543262,-0.26,-0.31,9.43,0,0,0
954,-0.001090831,-0.003272492,-0.006544985,-0.27,-0.52,9.4,0,0,0
955,0,-0.002181662,0.054541539,-0.3,-0.53,9.41,0,0,0
956,0.001090831,0.001090831,0.075267324,-0.36,-0.49,9.4,0,0,0
957,0.001090831,-0.001090831,0.065449847,-0.37,-0.47,9.39,0,0,0
958,0.004363323,-0.006544985,0.032724923,-0.35,-0.36,9.39,0,0,0
959,0.004363323,-0.003272492,0.022907446,-0.34,-0.38,9.39,0,0,0
960,0.001090831,-0.002181662,0.005454154,-0.32,-0.34,9.4,0,0,0
961,-0.003272492,-0.003272492,0.004363323,-0.32,-0.33,9.39,0,0,0
962,-0.001090831,-0.005454154,0.003272492,-0.32,-0.33,9.42,0,0,0
963,0.002181662,-0.004363323,0.001090831,-0.3,-0.37,9.4,0,0,0
964,0.003272492,-0.004363323,0.003272492,-0.31,-0.38,9.41,0,0,0
965,0.005454154,-0.002181662,0.002181662,-0.31,-0.37,9.39,0,0,0
966,0.003272492,-0.002181662,0.005454154,-0.31,-0.37,9.39,0,0,0
967,0.003272492,0,0.008726646,-0.33,-0.33,9.38,0,0,0
968,0.003272492,-0.001090831,0.001090831,-0.31,-0.31,9.39,0,0,0
969,0.005454154,-0.006544985,0.002181662,-0.33,-0.34,9.4,0,0,0
970,0.003272492,-0.004363323,0.003272492,-0.32,-0.36,9.41,0,0,0
971,0.005454154,-0.004363323,0.002181662,-0.31,-0.35,9.41,0,0,0
972,0,0.001090831,0.004363323,-0.34,-0.34,9.39,0,0,0
973,0.001090831,0.001090831,0.002181662,-0.32,-0.36,9.38,0,0,0
974,0.002181662,-0.002181662,0.005454154,-0.31,-0.33,9.4,0,0,0
975,0.006544985,-0.003272492,0.038179077,-0.29,-0.33,9.42,0,0,0
976,0.008726646,0,0.063268185,-0.33,-0.37,9.37,0,0,0
977,0.005454154,0.003272492,0.064359016,-0.35,-0.36,9.41,0,0,0
978,0.001090831,-0.002181662,0.035997416,-0.33,-0.34,9.41,0,0,0
979,0,-0.002181662,0.016362462,-0.33,-0.33,9.39,0,0,0
980,0.001090831,-0.001090831,0.004363323,-0.33,-0.36,9.39,0,0,0
981,0.001090831,-0.001090831,0,-0.31,-0.34,9.4,0,0,0
982,0.003272492,-0.002181662,0.004363323,-0.31,-0.35,9.42,0,0,0
983,0.006544985,-0.005454154,0.008726646,-0.31,-0.35,9.37,0,0,0
984,0.006544985,-0.002181662,0.009817477,-0.33,-0.33,9.4,0,0,0
985,0.004363323,-0.003272492,0.013089969,-0.33,-0.36,9.43,0,0,0
986,0.001090831,-0.001090831,0.008726646,-0.33,-0.33,9.41,0,0,0
987,0.005454154,-0.001090831,0.002181662,-0.3,-0.33,9.42,0,0,0
988,0.005454154,-0.004363323,0.001090831,-0.31,-0.34,9.41,0,0,0
989,0.008726646,-0.007635815,0.002181662,-0.31,-0.32,9.41,0,0,0
990,0.009817477,-0.008726646,0,-0.33,-0.34,9.39,0,0,0
991,0.007635815,-0.009817477,0.001090831,-0.31,-0.34,9.39,0,0,0
992,0.007635815,-0.011999139,0.007635815,-0.3,-0.33,9.41,0,0,0
993,0.0141808,-0.017453293,0.0141808,-0.29,-0.34,9.4,0,0,0
994,0.0141808,-0.0141808,0.033815754,-0.3,-0.34,9.44,0,0,0
995,0.015271631,-0.020725785,0.042542401,-0.28,-0.3,9.4,0,0,0
996,0.016362462,-0.016362462,0.043633231,-0.32,-0.33,9.43,0,0,0
997,0.016362462,-0.010908308,0.040360739,-0.3,-0.34,9.36,0,0,0
998,0.015271631,-0.001090831,0.063268185,-0.3,-0.35,9.43,0,0,0
999,0.0141808,0,0.076358155,-0.31,-0.34,9.41,0,0,0
1000,0.016362462,-0.004363323,0.088357293,-0.22,-0.45,9.39,0,0,0
1001,0.002181662,0.010908308,0.112355571,-0.3,-0.5,9.39,0,0,0
1002,0.002181662,0.009817477,0.148352986,-0.34,-0.54,9.38,0,0,0
1003,0.006544985,0.001090831,0.102538094,-0.39,-0.5,9.42,0,0,0
1004,0.003272492,0.001090831,0.010908308,-0.34,-0.27,9.42,0,0,0
1005,0.001090831,0.009817477,0.019634954,-0.33,-0.13,9.41,0,0,0
1006,0.004363323,-0.004363323,-0.026179939,-0.31,-0.15,9.41,0,0,0
1007,0.002181662,-0.006544985,-0.007635815,-0.32,-0.35,9.42,0,0,0
1008,0.003272492,0.001090831,0.0141808,-0.29,-0.54,9.39,0,0,0
1009,0.018544123,-0.006544985,0.043633231,-0.3,-0.56,9.41,0,0,0
1010,0.022907446,-0.013089969,0.025089108,-0.37,-0.41,9.39,0,0,0
1011,0.022907446,-0.013089969,-0.032724923,-0.25,-0.34,9.41,0,0,0
1012,0.018544123,-0.001090831,0.002181662,-0.22,-0.32,9.38,0,0,0
1013,0.009817477,0.010908308,0.042542401,-0.19,-0.4,9.4,0,0,0
1014,0.015271631,0.0141808,0.070904001,-0.21,-0.8,9.41,0,0,0
1015,0.016362462,0.009817477,0.04145157,-0.38,-0.28,9.41,0,0,0
1016,0.015271631,0.005454154,-0.0283616,-0.51,-0.11,9.38,0,0,0
1017,0.021816616,-0.008726646,-0.087266463,-0.37,-0.55,9.39,0,0,0
1018,0.019634954,-0.002181662,-0.073085662,-0.26,-0.34,9.37,0,0,0
1019,0.0141808,-0.003272492,-0.058904862,-0.2,-0.22,9.4,0,0,0
1020,0.017453293,0,-0.04145157,-0.19,-0.63,9.42,0,0,0
1021,0.018544123,-0.005454154,-0.047996554,-0.32,-0.34,9.43,0,0,0
1022,0.020725785,-0.008726646,-0.042542401,-0.4,-0.34,9.38,0,0,0
1023,0.017453293,-0.005454154,-0.045814893,-0.37,-0.39,9.38,0,0,0
1024,0.011999139,-0.002181662,-0.039269908,-0.34,-0.44,9.4,0,0,0
1025,0.009817477,0.006544985,-0.038179077,-0.25,-0.35,9.42,0,0,0
1026,0.009817477,0.010908308,-0.020725785,-0.35,-0.23,9.4,0,0,0
1027,0.009817477,0.002181662,-0.057814031,-0.26,-0.3,9.4,0,0,0
1028,0.004363323,-0.009817477,-0.082903139,-0.27,-0.3,9.41,0,0,0
1029,0.002181662,-0.002181662,-0.052359878,-0.33,-0.58,9.42,0,0,0
1030,0.001090831,0.005454154,-0.033815754,-0.29,-0.39,9.35,0,0,0
1031,-0.005454154,0.009817477,-0.040360739,-0.31,-0.36,9.4,0,0,0
1032,-0.004363323,0.008726646,-0.037088247,-0.31,-0.19,9.4,0,0,0
1033,-0.005454154,0.006544985,-0.04145157,-0.32,-0.11,9.39,0,0,0
1034,-0.002181662,0.006544985,-0.015271631,-0.43,0.11,9.39,0,0,0
1035,-0.003272492,0.004363323,-0.068722339,-0.33,0.03,9.41,0,0,0
1036,0.002181662,-0.006544985,-0.082903139,-0.22,-0.17,9.4,0,0,0
1037,0,-0.006544985,-0.063268185,-0.23,-0.23,9.41,0,0,0
1038,-0.001090831,0.004363323,-0.005454154,-0.3,-0.29,9.4,0,0,0
1039,-0.003272492,0.0141808,0.029452431,-0.37,-0.31,9.42,0,0,0
1040,-0.003272492,0.005454154,0.020725785,-0.42,-0.31,9.42,0,0,0
1041,-0.001090831,-0.002181662,-0.023998277,-0.35,-0.32,9.4,0,0,0
1042,0.001090831,0.001090831,-0.029452431,-0.32,-0.18,9.39,0,0,0
1043,-0.001090831,0,-0.019634954,-0.34,-0.28,9.41,0,0,0
1044,-0.002181662,0.001090831,-0.007635815,-0.24,-0.36,9.4,0,0,0
1045,-0.005454154,0.008726646,0.005454154,-0.35,-0.26,9.4,0,0,0
1046,-0.004363323,0.001090831,0.02727077,-0.35,-0.28,9.38,0,0,0
1047,0,-0.005454154,0.016362462,-0.31,-0.42,9.4,0,0,0
1048,-0.001090831,-0.008726646,0.026179939,-0.39,-0.4,9.38,0,0,0
1049,-0.001090831,-0.007635815,0,-0.33,-0.22,9.41,0,0,0
1050,-0.002181662,-0.010908308,-0.044724062,-0.28,-0.06,9.4,0,0,0
1051,0,-0.004363323,-0.0141808,-0.27,-0.29,9.41,0,0,0
1052,0.001090831,-0.005454154,0.016362462,-0.29,-0.28,9.33,0,0,0
1053,0.002181662,-0.004363323,0.039269908,-0.37,-0.6,9.41,0,0,0
1054,-0.003272492,-0.004363323,0.002181662,-0.39,-0.47,9.4,0,0,0
1055,-0.002181662,0.003272492,0.008726646,-0.38,-0.2,9.41,0,0,0
1056,-0.002181662,0.006544985,0,-0.32,-0.28,9.38,0,0,0
1057,-0.001090831,0.003272492,-0.021816616,-0.27,-0.2,9.4,0,0,0
1058,-0.003272492,0.006544985,-0.007635815,-0.22,-0.33,9.39,0,0,0
1059,-0.002181662,0,0.004363323,-0.33,-0.17,9.41,0,0,0
1060,-0.002181662,0.002181662,0.018544123,-0.29,-0.37,9.41,0,0,0
1061,-0.002181662,-0.001090831,0.023998277,-0.35,-0.3,9.42,0,0,0
1062,-0.001090831,0,0.017453293,-0.33,-0.29,9.41,0,0,0
1063,-0.002181662,0,-0.008726646,-0.34,-0.06,9.39,0,0,0
1064,-0.001090831,0.003272492,-0.021816616,-0.32,-0.43,9.4,0,0,0
1065,-0.002181662,0.003272492,-0.057814031,-0.29,-0.08,9.41,0,0,0
1066,-0.003272492,0.002181662,-0.06981317,-0.32,-0.19,9.4,0,0,0
1067,0,0.001090831,-0.045814893,-0.36,-0.16,9.38,0,0,0
1068,-0.001090831,0.001090831,-0.037088247,-0.34,-0.17,9.41,0,0,0
1069,0,-0.003272492,-0.026179939,-0.35,-0.3,9.42,0,0,0
1070,-0.003272492,-0.003272492,-0.049087385,-0.29,-0.49,9.37,0,0,0
1071,-0.003272492,-0.002181662,-0.051269047,-0.3,-0.56,9.4,0,0,0
1072,-0.004363323,0.006544985,-0.031634093,-0.32,-0.36,9.41,0,0,0
1073,-0.007635815,0.006544985,-0.010908308,-0.31,-0.31,9.42,0,0,0
1074,-0.006544985,0,-0.009817477,-0.31,-0.43,9.39,0,0,0
1075,-0.003272492,-0.003272492,-0.046905724,-0.3,-0.65,9.4,0,0,0
1076,0.001090831,-0.004363323,-0.054541539,-0.33,-0.16,9.42,0,0,0
1077,-0.004363323,-0.001090831,-0.038179077,-0.27,-0.44,9.38,0,0,0
1078,-0.005454154,-0.004363323,-0.04145157,-0.32,-0.34,9.37,0,0,0
1079,-0.004363323,-0.001090831,-0.042542401,-0.25,-0.29,9.4,0,0,0
1080,-0.005454154,0.005454154,-0.003272492,-0.35,-0.23,9.4,0,0,0
1081,-0.005454154,-0.004363323,-0.009817477,-0.32,-0.07,9.39,0,0,0
1082,-0.004363323,-0.004363323,-0.031634093,-0.42,-0.44,9.4,0,0,0
1083,-0.004363323,-0.010908308,-0.021816616,-0.34,-0.18,9.39,0,0,0
1084,-0.003272492,-0.009817477,-0.062177355,-0.27,-0.33,9.4,0,0,0
1085,-0.007635815,-0.004363323,-0.057814031,-0.28,-0.12,9.39,0,0,0
1086,-0.008726646,0,-0.040360739,-0.3,-0.26,9.4,0,0,0
1087,-0.007635815,0.004363323,-0.002181662,-0.31,-0.16,9.41,0,0,0
1088,-0.005454154,-0.001090831,0.020725785,-0.33,-0.32,9.41,0,0,0
1089,-0.004363323,-0.005454154,0,-0.33,-0.25,9.37,0,0,0
1090,-0.006544985,-0.003272492,-0.034906585,-0.33,-0.17,9.42,0,0,0
1091,-0.004363323,-0.006544985,-0.037088247,-0.35,-0.19,9.4,0,0,0
1092,-0.005454154,-0.005454154,-0.044724062,-0.33,-0.21,9.36,0,0,0
1093,-0.004363323,-0.005454154,-0.025089108,-0.29,-0.29,9.4,0,0,0
1094,-0.004363323,-0.006544985,-0.035997416,-0.26,-0.33,9.41,0,0,0
1095,-0.004363323,0,-0.011999139,-0.3,-0.18,9.39,0,0,0
1096,-0.007635815,-0.002181662,-0.015271631,-0.29,-0.3,9.39,0,0,0
1097,-0.006544985,-0.005454154,-0.010908308,-0.33,-0.32,9.41,0,0,0
1098,-0.007635815,-0.003272492,0.004363323,-0.39,-0.17,9.41,0,0,0
1099,-0.005454154,-0.002181662,-0.010908308,-0.34,-0.08,9.38,0,0,0
1100,-0.003272492,-0.001090831,-0.005454154,-0.32,-0.09,9.38,0,0,0
1101,-0.001090831,-0.003272492,-0.006544985,-0.33,-0.36,9.42,0,0,0
1102,-0.004363323,-0.003272492,-0.025089108,-0.28,-0.38,9.39,0,0,0
1103,-0.005454154,-0.003272492,-0.015271631,-0.35,-0.62,9.38,0,0,0
1104,-0.006544985,-0.008726646,-0.045814893,-0.32,-0.29,9.41,0,0,0
1105,-0.008726646,-0.005454154,-0.05563237,-0.39,-0.45,9.39,0,0,0
1106,-0.007635815,-0.006544985,-0.067631509,-0.34,-0.53,9.41,0,0,0
1107,-0.005454154,-0.005454154,-0.045814893,-0.31,-0.09,9.4,0,0,0
1108,-0.010908308,0.002181662,-0.042542401,-0.29,-0.34,9.39,0,0,0
1109,-0.007635815,-0.001090831,0.003272492,-0.32,-0.2,9.42,0,0,0
1110,-0.009817477,0.003272492,0.010908308,-0.32,-0.31,9.39,0,0,0
1111,-0.013089969,0.001090831,0.0141808,-0.41,-0.09,9.39,0,0,0
1112,-0.011999139,-0.002181662,-0.05563237,-0.26,-0.13,9.39,0,0,0
1113,-0.006544985,-0.003272492,-0.077448986,-0.24,0.13,9.4,0,0,0
1114,-0.007635815,-0.007635815,-0.045814893,-0.24,-0.24,9.39,0,0,0
1115,-0.006544985,-0.003272492,-0.058904862,-0.3,-0.16,9.4,0,0,0
1116,-0.008726646,-0.002181662,-0.044724062,-0.34,-0.56,9.42,0,0,0
1117,-0.009817477,0.002181662,-0.032724923,-0.38,-0.33,9.39,0,0,0
1118,-0.009817477,0.002181662,-0.032724923,-0.42,-0.51,9.39,0,0,0
1119,-0.0141808,0.003272492,-0.082903139,-0.35,0.06,9.39,0,0,0
1120,-0.010908308,0.007635815,-0.081812309,-0.25,0.16,9.41,0,0,0
1121,-0.005454154,-0.004363323,-0.040360739,-0.31,-0.16,9.4,0,0,0
1122,-0.003272492,0,-0.004363323,-0.32,-0.34,9.4,0,0,0
1123,-0.003272492,0.002181662,-0.002181662,-0.33,-0.56,9.39,0,0,0
1124,-0.007635815,0.002181662,-0.023998277,-0.37,-0.45,9.39,0,0,0
1125,-0.010908308,-0.001090831,-0.022907446,-0.34,-0.26,9.39,0,0,0
1126,-0.003272492,0.001090831,0.021816616,-0.35,0,9.37,0,0,0
1127,-0.003272492,-0.002181662,0.006544985,-0.29,-0.05,9.41,0,0,0
1128,0.001090831,-0.002181662,-0.015271631,-0.3,-0.24,9.41,0,0,0
1129,-0.003272492,-0.004363323,-0.022907446,-0.32,-0.36,9.41,0,0,0
1130,-0.002181662,-0.004363323,-0.053450708,-0.32,-0.47,9.43,0,0,0
1131,-0.005454154,-0.001090831,-0.056723201,-0.36,-0.49,9.4,0,0,0
1132,-0.005454154,0.003272492,-0.021816616,-0.35,-0.39,9.37,0,0,0
1133,-0.006544985,0.004363323,-0.019634954,-0.28,-0.28,9.4,0,0,0
1134,-0.005454154,0.006544985,0.011999139,-0.31,-0.31,9.4,0,0,0
1135,0.001090831,-0.001090831,0.016362462,-0.27,-0.08,9.39,0,0,0
1136,0.005454154,-0.005454154,-0.004363323,-0.35,-0.41,9.4,0,0,0
1137,0,0.004363323,-0.040360739,-0.36,-0.48,9.39,0,0,0
1138,-0.001090831,0.001090831,-0.035997416,-0.33,-0.4,9.41,0,0,0
1139,0,0,-0.0283616,-0.33,-0.51,9.39,0,0,0
1140,0,0.005454154,-0.022907446,-0.27,-0.5,9.4,0,0,0
1141,0.005454154,0.004363323,-0.0141808,-0.29,-0.43,9.4,0,0,0
1142,0.003272492,0.001090831,0.009817477,-0.34,-0.41,9.4,0,0,0
1143,0.002181662,0.002181662,0.015271631,-0.41,-0.44,9.4,0,0,0
1144,0.005454154,0.001090831,0.004363323,-0.36,-0.22,9.39,0,0,0
1145,0.005454154,0,-0.017453293,-0.36,-0.26,9.42,0,0,0
1146,0.001090831,-0.002181662,-0.005454154,-0.27,-0.11,9.38,0,0,0
1147,0.006544985,0.002181662,0.029452431,-0.29,-0.23,9.39,0,0,0
1148,0.007635815,0.005454154,0.058904862,-0.27,-0.48,9.41,0,0,0
1149,0.001090831,0,0.022907446,-0.41,-0.51,9.4,0,0,0
1150,0.002181662,-0.001090831,-0.038179077,-0.37,-0.54,9.4,0,0,0
1151,0.002181662,-0.003272492,-0.05563237,-0.37,-0.4,9.4,0,0,0
1152,0.002181662,0.002181662,-0.056723201,-0.34,-0.4,9.41,0,0,0
1153,0.001090831,0.010908308,-0.009817477,-0.26,0,9.39,0,0,0
1154,0.003272492,0.006544985,-0.010908308,-0.28,-0.01,9.41,0,0,0
1155,0.003272492,-0.002181662,-0.019634954,-0.33,-0.24,9.42,0,0,0
1156,0.002181662,-0.010908308,-0.044724062,-0.36,-0.27,9.42,0,0,0
1157,0.004363323,-0.008726646,-0.043633231,-0.3,-0.45,9.39,0,0,0
1158,-0.001090831,0.003272492,-0.040360739,-0.32,-0.45,9.42,0,0,0
1159,0,0.005454154,-0.02727077,-0.35,-0.41,9.43,0,0,0
1160,0.001090831,0.007635815,-0.005454154,-0.32,-0.29,9.38,0,0,0
1161,0.001090831,0.003272492,-0.018544123,-0.37,-0.22,9.41,0,0,0
1162,0.002181662,0.002181662,-0.046905724,-0.4,-0.17,9.4,0,0,0
1163,0.001090831,-0.003272492,-0.057814031,-0.37,-0.13,9.42,0,0,0
1164,0.003272492,-0.004363323,-0.045814893,-0.33,-0.26,9.39,0,0,0
1165,0.002181662,-0.003272492,-0.038179077,-0.3,-0.29,9.4,0,0,0
1166,0.002181662,-0.001090831,-0.021816616,-0.33,-0.57,9.39,0,0,0
1167,-0.001090831,0.002181662,0,-0.31,-0.57,9.42,0,0,0
1168,-0.001090831,-0.001090831,-0.011999139,-0.36,-0.61,9.4,0,0,0
1169,-0.001090831,0.003272492,-0.025089108,-0.41,-0.34,9.42,0,0,0
1170,-0.005454154,0.003272492,-0.043633231,-0.38,-0.06,9.4,0,0,0
1171,-0.003272492,0,-0.044724062,-0.22,0.19,9.39,0,0,0
1172,0.002181662,-0.002181662,0.009817477,-0.27,-0.13,9.39,0,0,0
1173,0,-0.005454154,0.016362462,-0.3,-0.21,9.39,0,0,0
1174,0.003272492,-0.007635815,0.016362462,-0.32,-0.61,9.42,0,0,0
1175,-0.002181662,-0.003272492,0.009817477,-0.34,-0.56,9.4,0,0,0
1176,-0.002181662,-0.003272492,-0.007635815,-0.34,-0.53,9.41,0,0,0
1177,-0.005454154,0.002181662,-0.018544123,-0.37,-0.35,9.38,0,0,0
1178,-0.002181662,0.003272492,-0.011999139,-0.33,0.04,9.38,0,0,0
1179,0.001090831,-0.008726646,-0.0283616,-0.33,0.09,9.4,0,0,0
1180,0.002181662,-0.010908308,-0.044724062,-0.4,0.03,9.42,0,0,0
1181,-0.001090831,-0.011999139,-0.06981317,-0.32,-0.14,9.42,0,0,0
1182,0.003272492,-0.009817477,-0.038179077,-0.26,-0.56,9.39,0,0,0
1183,0.001090831,-0.007635815,-0.0283616,-0.28,-0.56,9.4,0,0,0
1184,0,-0.001090831,-0.009817477,-0.32,-0.53,9.41,0,0,0
1185,-0.004363323,0.004363323,-0.002181662,-0.33,-0.25,9.41,0,0,0
1186,-0.005454154,-0.001090831,0.008726646,-0.35,-0.21,9.38,0,0,0
1187,-0.002181662,0,0.015271631,-0.35,-0.27,9.44,0,0,0
1188,-0.002181662,-0.003272492,0.011999139,-0.38,-0.08,9.39,0,0,0
1189,-0.003272492,-0.003272492,-0.002181662,-0.33,-0.36,9.41,0,0,0
1190,-0.002181662,-0.004363323,0.009817477,-0.33,-0.38,9.41,0,0,0
1191,-0.001090831,-0.002181662,0.004363323,-0.26,-0.46,9.42,0,0,0
1192,-0.002181662,0.002181662,0.016362462,-0.28,-0.52,9.39,0,0,0
1193,-0.002181662,0.002181662,0.035997416,-0.31,-0.48,9.39,0,0,0
1194,-0.001090831,0.004363323,0.0283616,-0.35,-0.23,9.39,0,0,0
1195,-0.001090831,0.001090831,0.011999139,-0.39,-0.15,9.41,0,0,0
1196,-0.002181662,-0.003272492,-0.031634093,-0.31,-0.16,9.39,0,0,0
1197,0,-0.001090831,-0.004363323,-0.28,-0.36,9.39,0,0,0
1198,0,-0.004363323,0.001090831,-0.25,-0.23,9.39,0,0,0
1199,0.001090831,-0.003272492,0.003272492,-0.33,-0.7,9.4,0,0,0
1200,0.001090831,-0.005454154,-0.030543262,-0.33,-0.31,9.36,0,0,0
1201,0,0,-0.019634954,-0.34,-0.18,9.41,0,0,0
1202,-0.002181662,0.001090831,0.001090831,-0.33,-0.22,9.4,0,0,0
1203,-0.003272492,0.002181662,0.030543262,-0.31,0.22,9.41,0,0,0
1204,-0.001090831,0.002181662,0.032724923,-0.34,-0.08,9.38,0,0,0
1205,0,-0.005454154,-0.003272492,-0.36,-0.32,9.42,0,0,0
1206,-0.003272492,-0.005454154,-0.016362462,-0.32,-0.59,9.4,0,0,0
1207,-0.002181662,-0.003272492,-0.038179077,-0.29,-0.08,9.38,0,0,0
1208,-0.003272492,-0.001090831,-0.030543262,-0.35,-0.33,9.39,0,0,0
1209,-0.001090831,0,-0.038179077,-0.26,-0.5,9.42,0,0,0
1210,-0.001090831,0.001090831,-0.015271631,-0.33,-0.49,9.41,0,0,0
1211,-0.001090831,0.005454154,0.005454154,-0.27,-0.4,9.37,0,0,0
1212,-0.002181662,0.002181662,0.026179939,-0.36,-0.1,9.4,0,0,0
1213,-0.006544985,0.006544985,0.016362462,-0.39,0.05,9.39,0,0,0
1214,-0.001090831,0,-0.020725785,-0.35,-0.06,9.39,0,0,0
1215,-0.001090831,-0.004363323,-0.008726646,-0.33,-0.35,9.42,0,0,0
1216,0.001090831,-0.005454154,-0.004363323,-0.29,-0.41,9.4,0,0,0
1217,-0.001090831,0.002181662,0.023998277,-0.31,-0.46,9.4,0,0,0
1218,-0.002181662,0.002181662,0.009817477,-0.31,-0.48,9.4,0,0,0
1219,-0.003272492,0.006544985,0.0141808,-0.32,-0.18,9.36,0,0,0
1220,0.002181662,0.001090831,0.007635815,-0.33,-0.2,9.41,0,0,0
1221,0.003272492,-0.002181662,0.001090831,-0.35,-0.18,9.37,0,0,0
1222,0.003272492,-0.003272492,-0.022907446,-0.35,-0.16,9.45,0,0,0
1223,0.005454154,-0.001090831,-0.009817477,-0.29,-0.17,9.4,0,0,0
1224,0.003272492,-0.002181662,0.025089108,-0.24,-0.4,9.39,0,0,0
1225,0.001090831,0.001090831,0.02727077,-0.33,-0.51,9.38,0,0,0
1226,0.002181662,-0.003272492,-0.002181662,-0.3,-0.55,9.38,0,0,0
1227,0,-0.002181662,-0.001090831,-0.31,-0.36,9.4,0,0,0
1228,0.001090831,-0.001090831,-0.007635815,-0.36,-0.21,9.41,0,0,0
1229,0.001090831,-0.001090831,-0.017453293,-0.35,-0.11,9.38,0,0,0
1230,0.001090831,-0.003272492,-0.030543262,-0.29,-0.41,9.43,0,0,0
1231,0.003272492,-0.001090831,-0.015271631,-0.28,-0.43,9.43,0,0,0
1232,0.006544985,-0.001090831,0,-0.34,-0.18,9.37,0,0,0
1233,0.003272492,0.001090831,-0.003272492,-0.34,-0.32,9.4,0,0,0
1234,0.003272492,0.006544985,0.011999139,-0.35,-0.23,9.41,0,0,0
1235,0.001090831,0.003272492,0.010908308,-0.3,-0.3,9.4,0,0,0
1236,0.004363323,-0.001090831,0.013089969,-0.27,-0.44,9.42,0,0,0
1237,0.005454154,-0.001090831,0.008726646,-0.31,-0.42,9.41,0,0,0
1238,0.001090831,0,0.015271631,-0.35,-0.48,9.4,0,0,0
1239,0.003272492,0,0.005454154,-0.38,-0.33,9.37,0,0,0
1240,0.007635815,-0.001090831,0.016362462,-0.36,-0.39,9.42,0,0,0
1241,0.004363323,-0.002181662,-0.004363323,-0.3,-0.35,9.37,0,0,0
1242,0.005454154,0.001090831,0.0141808,-0.32,-0.32,9.39,0,0,0
1243,0.005454154,0.003272492,0.037088247,-0.28,-0.29,9.42,0,0,0
1244,0.001090831,0,0.0283616,-0.32,-0.33,9.4,0,0,0
1245,0.003272492,0,0.025089108,-0.33,-0.43,9.41,0,0,0
1246,0.001090831,0,0.030543262,-0.32,-0.5,9.4,0,0,0
1247,0.001090831,-0.004363323,0.020725785,-0.36,-0.18,9.38,0,0,0
1248,0.001090831,-0.002181662,0.009817477,-0.34,-0.28,9.4,0,0,0
1249,0.002181662,-0.001090831,0.004363323,-0.32,-0.25,9.39,0,0,0
1250,0.002181662,-0.003272492,0.010908308,-0.36,-0.27,9.39,0,0,0
1251,-0.002181662,-0.001090831,0.003272492,-0.35,-0.11,9.4,0,0,0
1252,-0.001090831,-0.002181662,0.002181662,-0.35,-0.27,9.39,0,0,0
1253,0,-0.002181662,0.006544985,-0.3,-0.42,9.38,0,0,0
1254,-0.002181662,-0.004363323,0.030543262,-0.32,-0.29,9.41,0,0,0
1255,-0.004363323,-0.004363323,0.034906585,-0.32,-0.41,9.4,0,0,0
1256,-0.003272492,0.005454154,0.016362462,-0.29,-0.42,9.39,0,0,0
1257,-0.006544985,0.004363323,0.006544985,-0.43,-0.22,9.39,0,0,0
1258,-0.003272492,-0.004363323,-0.025089108,-0.37,-0.19,9.39,0,0,0
1259,0,-0.005454154,-0.020725785,-0.33,-0.17,9.39,0,0,0
1260,-0.003272492,-0.003272492,-0.007635815,-0.27,-0.47,9.4,0,0,0
1261,-0.003272492,0.001090831,-0.006544985,-0.3,-0.29,9.4,0,0,0
1262,-0.004363323,0.001090831,0.005454154,-0.27,-0.4,9.39,0,0,0
1263,-0.003272492,-0.005454154,0.011999139,-0.41,-0.22,9.4,0,0,0
1264,-0.004363323,0.003272492,-0.002181662,-0.43,-0.19,9.4,0,0,0
1265,-0.005454154,-0.005454154,-0.025089108,-0.4,-0.14,9.4,0,0,0
1266,-0.005454154,-0.005454154,-0.023998277,-0.31,-0.32,9.39,0,0,0
1267,-0.003272492,-0.005454154,-0.022907446,-0.26,-0.33,9.38,0,0,0
1268,-0.003272492,0,0.013089969,-0.29,-0.49,9.41,0,0,0
1269,-0.003272492,0.001090831,0.016362462,-0.27,-0.42,9.41,0,0,0
1270,-0.006544985,0,0.011999139,-0.41,-0.32,9.38,0,0,0
1271,-0.006544985,-0.003272492,-0.035997416,-0.3,-0.33,9.41,0,0,0
1272,-0.007635815,-0.001090831,-0.032724923,-0.37,-0.08,9.38,0,0,0
1273,-0.006544985,-0.003272492,-0.020725785,-0.28,-0.42,9.43,0,0,0
1274,-0.002181662,-0.003272492,-0.004363323,-0.32,-0.31,9.41,0,0,0
1275,-0.007635815,-0.002181662,0.004363323,-0.27,-0.52,9.42,0,0,0
1276,-0.005454154,0.003272492,0.019634954,-0.31,-0.55,9.4,0,0,0
1277,-0.007635815,0.004363323,0.025089108,-0.38,-0.51,9.39,0,0,0
1278,-0.009817477,0.002181662,0.003272492,-0.45,-0.22,9.4,0,0,0
1279,-0.008726646,-0.002181662,-0.049087385,-0.37,-0.11,9.41,0,0,0
1280,-0.009817477,-0.004363323,-0.043633231,-0.28,-0.11,9.43,0,0,0
1281,-0.006544985,-0.005454154,-0.035997416,-0.32,-0.33,9.41,0,0,0
1282,-0.007635815,-0.004363323,-0.045814893,-0.34,-0.33,9.4,0,0,0
1283,-0.005454154,-0.004363323,-0.031634093,-0.29,-0.31,9.39,0,0,0
1284,-0.009817477,0.002181662,-0.007635815,-0.37,-0.54,9.41,0,0,0
1285,-0.010908308,0.001090831,-0.0141808,-0.35,-0.15,9.4,0,0,0
1286,-0.009817477,-0.001090831,0.005454154,-0.34,0.02,9.43,0,0,0
1287,-0.008726646,0.003272492,0.016362462,-0.32,-0.01,9.4,0,0,0
1288,-0.005454154,0.003272492,0.031634093,-0.35,-0.13,9.42,0,0,0
1289,-0.005454154,0,0.030543262,-0.3,-0.25,9.39,0,0,0
1290,-0.004363323,-0.003272492,0.009817477,-0.35,-0.54,9.4,0,0,0
1291,-0.007635815,-0.003272492,-0.030543262,-0.33,-0.5,9.38,0,0,0
1292,-0.006544985,0.001090831,-0.009817477,-0.31,-0.41,9.4,0,0,0
1293,-0.007635815,0,0.010908308,-0.4,-0.38,9.39,0,0,0
1294,-0.009817477,-0.002181662,-0.004363323,-0.41,-0.42,9.43,0,0,0
1295,-0.009817477,-0.001090831,-0.007635815,-0.37,-0.27,9.4,0,0,0
1296,-0.007635815,-0.004363323,-0.017453293,-0.38,-0.35,9.4,0,0,0
1297,-0.008726646,-0.003272492,-0.0283616,-0.28,-0.28,9.39,0,0,0
1298,-0.006544985,0.001090831,0.016362462,-0.33,-0.44,9.41,0,0,0
1299,-0.007635815,0,0.015271631,-0.33,-0.45,9.39,0,0,0
1300,-0.006544985,0.002181662,0.019634954,-0.43,-0.24,9.43,0,0,0
1301,-0.008726646,-0.005454154,-0.068722339,-0.35,-0.15,9.43,0,0,0
1302,-0.008726646,-0.006544985,-0.082903139,-0.36,-0.24,9.4,0,0,0
1303,-0.008726646,-0.002181662,-0.05563237,-0.27,-0.26,9.41,0,0,0
1304,-0.006544985,0.002181662,0.017453293,-0.34,-0.47,9.39,0,0,0
1305,-0.005454154,0,0.019634954,-0.3,-0.45,9.41,0,0,0
1306,-0.007635815,0.004363323,0.034906585,-0.29,-0.41,9.4,0,0,0
1307,-0.008726646,0,0.032724923,-0.46,-0.41,9.39,0,0,0
1308,-0.008726646,-0.005454154,-0.049087385,-0.37,-0.15,9.39,0,0,0
1309,-0.006544985,0.002181662,-0.005454154,-0.27,-0.11,9.39,0,0,0
1310,-0.006544985,0,0.030543262,-0.26,-0.21,9.42,0,0,0
1311,-0.003272492,0.003272492,0.057814031,-0.28,-0.28,9.39,0,0,0
1312,-0.005454154,0.001090831,0.062177355,-0.29,-0.4,9.41,0,0,0
1313,-0.003272492,0.004363323,0.062177355,-0.36,-0.54,9.41,0,0,0
1314,-0.004363323,-0.004363323,0.02727077,-0.44,-0.44,9.4,0,0,0
1315,-0.007635815,-0.008726646,-0.058904862,-0.35,-0.21,9.39,0,0,0
1316,-0.006544985,-0.005454154,-0.049087385,-0.26,-0.15,9.42,0,0,0
1317,-0.005454154,-0.001090831,-0.013089969,-0.29,-0.46,9.43,0,0,0
1318,-0.003272492,0.003272492,0.029452431,-0.31,-0.53,9.39,0,0,0
1319,-0.003272492,0.003272492,0.040360739,-0.3,-0.51,9.41,0,0,0
1320,-0.004363323,0.007635815,0.075267324,-0.39,-0.42,9.42,0,0,0
1321,-0.003272492,0.005454154,0.051269047,-0.36,-0.15,9.4,0,0,0
1322,-0.004363323,-0.001090831,0.033815754,-0.38,-0.45,9.41,0,0,0
1323,-0.003272492,0,-0.013089969,-0.29,-0.24,9.42,0,0,0
1324,-0.003272492,-0.001090831,-0.001090831,-0.37,-0.52,9.44,0,0,0
1325,-0.003272492,0.001090831,-0.022907446,-0.28,-0.28,9.39,0,0,0
1326,-0.004363323,0.001090831,0.002181662,-0.29,-0.15,9.4,0,0,0
1327,-0.006544985,0.005454154,0.029452431,-0.33,-0.18,9.4,0,0,0
1328,-0.004363323,0.001090831,0.019634954,-0.36,-0.34,9.4,0,0,0
1329,-0.002181662,-0.005454154,0.007635815,-0.34,-0.39,9.4,0,0,0
1330,-0.004363323,-0.001090831,-0.052359878,-0.28,-0.6,9.43,0,0,0
1331,-0.004363323,0.001090831,-0.047996554,-0.26,-0.43,9.42,0,0,0
1332,-0.004363323,0.004363323,-0.016362462,-0.3,-0.28,9.41,0,0,0
1333,-0.005454154,0.004363323,0.032724923,-0.45,-0.21,9.41,0,0,0
1334,-0.003272492,-0.003272492,0.001090831,-0.42,-0.17,9.42,0,0,0
1335,-0.006544985,-0.008726646,-0.023998277,-0.46,-0.3,9.43,0,0,0
1336,-0.004363323,-0.003272492,-0.018544123,-0.29,-0.39,9.39,0,0,0
1337,-0.006544985,-0.003272492,-0.004363323,-0.33,-0.42,9.42,0,0,0
1338,-0.006544985,-0.002181662,-0.004363323,-0.36,-0.51,9.41,0,0,0
1339,-0.009817477,0.008726646,-0.008726646,-0.39,-0.28,9.41,0,0,0
1340,-0.008726646,0.001090831,-0.035997416,-0.33,-0.23,9.38,0,0,0
1341,-0.002181662,0.001090831,-0.031634093,-0.26,0.11,9.42,0,0,0
1342,-0.002181662,0.001090831,-0.005454154,-0.32,-0.11,9.44,0,0,0
1343,-0.001090831,-0.005454154,0.008726646,-0.34,-0.72,9.4,0,0,0
1344,-0.001090831,0.004363323,0.0283616,-0.39,-0.66,9.39,0,0,0
1345,0,0.003272492,0.007635815,-0.28,-0.37,9.41,0,0,0
1346,-0.002181662,-0.001090831,0.033815754,-0.43,-0.33,9.4,0,0,0
1347,-0.002181662,-0.001090831,-0.001090831,-0.35,-0.33,9.37,0,0,0
1348,0,0.001090831,0.0141808,-0.42,-0.51,9.42,0,0,0
1349,0.001090831,0.001090831,0.004363323,-0.32,-0.49,9.42,0,0,0
1350,0.002181662,0,0.042542401,-0.35,-0.68,9.43,0,0,0
1351,-0.003272492,0.001090831,0.056723201,-0.31,-0.1,9.39,0,0,0
1352,-0.004363323,0,0.0283616,-0.33,-0.36,9.41,0,0,0
1353,-0.006544985,0,0.008726646,-0.36,-0.53,9.38,0,0,0
1354,-0.002181662,0,0.007635815,-0.45,-0.5,9.39,0,0,0
1355,-0.004363323,0.001090831,0.0141808,-0.36,-0.47,9.41,0,0,0
1356,-0.003272492,0,0.029452431,-0.24,-0.4,9.44,0,0,0
1357,-0.004363323,0.002181662,0.071994832,-0.25,-0.29,9.42,0,0,0
1358,-0.005454154,0.002181662,0.091629786,-0.43,-0.49,9.42,0,0,0
1359,-0.004363323,0.005454154,0.085084801,-0.42,-0.4,9.39,0,0,0
1360,-0.006544985,0.005454154,0.077448986,-0.44,-0.52,9.41,0,0,0
1361,-0.009817477,0.002181662,0.075267324,-0.35,-0.26,9.37,0,0,0
1362,-0.005454154,0.003272492,0.046905724,-0.33,-0.36,9.42,0,0,0
1363,-0.005454154,0.005454154,0.031634093,-0.26,-0.19,9.42,0,0,0
1364,-0.003272492,0.002181662,-0.018544123,-0.19,-0.18,9.39,0,0,0
1365,0.002181662,0.004363323,-0.002181662,-0.22,-0.28,9.38,0,0,0
1366,-0.002181662,0.003272492,-0.037088247,-0.43,-0.54,9.42,0,0,0
1367,-0.003272492,0.005454154,0.003272492,-0.33,-0.51,9.39,0,0,0
1368,-0.002181662,0.009817477,0.059995693,-0.36,-0.22,9.38,0,0,0
1369,-0.001090831,0.003272492,0.089448124,-0.28,-0.37,9.41,0,0,0
1370,0,0.008726646,0.113446401,-0.37,-0.26,9.45,0,0,0
1371,-0.001090831,0.002181662,0.116718894,-0.36,-0.47,9.39,0,0,0
1372,0.001090831,0.009817477,0.09817477,-0.45,-0.33,9.37,0,0,0
1373,0.001090831,0.006544985,0.05563237,-0.31,-0.21,9.42,0,0,0
1374,0.001090831,0.006544985,0.059995693,-0.33,-0.36,9.43,0,0,0
1375,-0.001090831,0.008726646,0.062177355,-0.39,-0.47,9.43,0,0,0
1376,0.001090831,0.004363323,0.094902278,-0.4,-0.47,9.4,0,0,0
1377,-0.006544985,0,0.093811447,-0.4,-0.31,9.41,0,0,0
1378,-0.006544985,-0.003272492,0.080721478,-0.45,-0.26,9.39,0,0,0
1379,-0.001090831,-0.001090831,0.056723201,-0.35,-0.14,9.43,0,0,0
1380,-0.002181662,-0.005454154,0.051269047,-0.32,-0.29,9.39,0,0,0
1381,-0.003272492,0,0.064359016,-0.39,-0.42,9.43,0,0,0
1382,0.001090831,-0.006544985,0.022907446,-0.4,-0.54,9.38,0,0,0
1383,0,-0.006544985,0.022907446,-0.4,-0.56,9.41,0,0,0
1384,0,-0.003272492,0.013089969,-0.39,-0.44,9.39,0,0,0
1385,-0.002181662,0.002181662,0.006544985,-0.34,-0.39,9.44,0,0,0
1386,-0.003272492,0.003272492,-0.001090831,-0.49,-0.59,9.43,0,0,0
1387,0,0.001090831,-0.049087385,-0.45,-0.38,9.42,0,0,0
1388,-0.001090831,-0.003272492,-0.092720617,-0.35,-0.27,9.41,0,0,0
1389,-0.002181662,0,-0.110173909,-0.23,-0.16,9.38,0,0,0
1390,-0.001090831,0.005454154,-0.037088247,-0.24,-0.31,9.37,0,0,0
1391,0.001090831,0.004363323,0.017453293,-0.33,-0.45,9.4,0,0,0
1392,0.001090831,0.004363323,0.046905724,-0.45,-0.48,9.4,0,0,0
1393,0.005454154,-0.008726646,-0.038179077,-0.45,-0.31,9.41,0,0,0
1394,0.004363323,-0.005454154,-0.085084801,-0.36,-0.18,9.41,0,0,0
1395,0.007635815,-0.003272492,-0.057814031,-0.21,-0.21,9.39,0,0,0
1396,0.005454154,-0.001090831,-0.004363323,-0.33,-0.34,9.42,0,0,0
1397,0.005454154,0,0.015271631,-0.34,-0.47,9.39,0,0,0
1398,0.001090831,0.003272492,0.0141808,-0.4,-0.55,9.39,0,0,0
1399,0.002181662,0.001090831,0.019634954,-0.39,-0.58,9.38,0,0,0
1400,0.007635815,-0.001090831,0.017453293,-0.2,-0.09,9.4,0,0,0
1401,0.008726646,0.002181662,0.067631509,-0.37,-0.33,9.42,0,0,0
1402,0.007635815,-0.003272492,0.089448124,-0.47,-0.47,9.42,0,0,0
1403,-0.001090831,-0.002181662,0.050178216,-0.38,-0.42,9.38,0,0,0
1404,0.003272492,-0.001090831,0.026179939,-0.55,-0.58,9.4,0,0,0
1405,0.001090831,-0.006544985,-0.022907446,-0.37,-0.4,9.39,0,0,0
1406,0.001090831,-0.005454154,0.004363323,-0.32,-0.3,9.39,0,0,0
1407,0.003272492,0,0.019634954,-0.28,-0.21,9.4,0,0,0
1408,0.003272492,-0.002181662,0.019634954,-0.4,-0.29,9.39,0,0,0
1409,-0.002181662,-0.001090831,-0.029452431,-0.34,-0.23,9.43,0,0,0
1410,0.001090831,-0.002181662,-0.037088247,-0.21,-0.13,9.42,0,0,0
1411,0.005454154,-0.002181662,-0.022907446,-0.32,-0.18,9.39,0,0,0
1412,0.004363323,-0.002181662,0,-0.26,-0.2,9.41,0,0,0
1413,0.004363323,-0.002181662,0.006544985,-0.41,-0.34,9.42,0,0,0
1414,0.002181662,-0.005454154,-0.010908308,-0.4,-0.41,9.43,0,0,0
1415,0,-0.001090831,-0.0141808,-0.3,-0.36,9.4,0,0,0
1416,-0.004363323,0.002181662,0.015271631,-0.29,-0.39,9.4,0,0,0
1417,-0.003272492,0.006544985,0.056723201,-0.45,-0.54,9.41,0,0,0
1418,-0.004363323,0.002181662,0.046905724,-0.31,-0.38,9.4,0,0,0
1419,-0.001090831,0.003272492,0.052359878,-0.64,-0.68,9.43,0,0,0
1420,-0.001090831,0.003272492,0.019634954,-0.26,-0.21,9.4,0,0,0
1421,0.003272492,0.002181662,0.064359016,-0.51,-0.51,9.43,0,0,0
1422,0.002181662,-0.001090831,0.053450708,-0.43,-0.54,9.39,0,0,0
1423,-0.001090831,0.005454154,0.074176493,-0.49,-0.64,9.42,0,0,0
1424,-0.002181662,0.009817477,0.047996554,-0.34,-0.21,9.39,0,0,0
1425,-0.001090831,0.006544985,0.020725785,-0.43,-0.27,9.41,0,0,0
1426,-0.003272492,-0.003272492,0.013089969,-0.26,-0.23,9.41,0,0,0
1427,0.003272492,-0.001090831,0.0283616,-0.31,-0.31,9.42,0,0,0
1428,0.001090831,0,0.047996554,-0.37,-0.39,9.41,0,0,0
1429,0.002181662,-0.005454154,0.053450708,-0.45,-0.48,9.42,0,0,0
1430,0,-0.004363323,0.030543262,-0.39,-0.41,9.4,0,0,0
1431,-0.007635815,-0.007635815,-0.011999139,-0.35,-0.3,9.38,0,0,0
1432,-0.002181662,-0.002181662,-0.001090831,-0.43,-0.33,9.4,0,0,0
1433,0.003272492,-0.003272492,-0.001090831,-0.3,-0.27,9.39,0,0,0
1434,0.001090831,-0.003272492,0.019634954,-0.36,-0.38,9.39,0,0,0
1435,0.002181662,-0.004363323,0.029452431,-0.37,-0.42,9.39,0,0,0
1436,0.002181662,0.001090831,0.051269047,-0.45,-0.47,9.41,0,0,0
1437,0.003272492,-0.003272492,0.033815754,-0.41,-0.38,9.38,0,0,0
1438,0.009817477,-0.007635815,0.010908308,-0.26,-0.14,9.4,0,0,0
1439,0.008726646,-0.008726646,0.034906585,-0.33,-0.32,9.43,0,0,0
1440,0.007635815,-0.007635815,0.054541539,-0.42,-0.52,9.4,0,0,0
1441,-0.005454154,0,0.035997416,-0.46,-0.48,9.38,0,0,0
1442,-0.003272492,-0.002181662,0.002181662,-0.48,-0.48,9.43,0,0,0
1443,-0.007635815,-0.003272492,-0.02727077,-0.33,-0.34,9.37,0,0,0
1444,-0.006544985,0.003272492,0,-0.33,-0.32,9.36,0,0,0
1445,-0.004363323,0.002181662,0.022907446,-0.38,-0.47,9.41,0,0,0
1446,0.002181662,0.006544985,0.019634954,-0.37,-0.53,9.4,0,0,0
1447,-0.006544985,0,-0.009817477,-0.48,-0.65,9.41,0,0,0
1448,-0.011999139,-0.002181662,-0.016362462,-0.45,-0.55,9.38,0,0,0
1449,-0.004363323,-0.006544985,-0.0283616,-0.41,-0.4,9.4,0,0,0
1450,-0.002181662,-0.006544985,-0.023998277,-0.37,-0.29,9.4,0,0,0
1451,-0.001090831,-0.008726646,-0.029452431,-0.35,-0.27,9.37,0,0,0
1452,-0.013089969,-0.001090831,-0.021816616,-0.36,-0.38,9.43,0,0,0
1453,-0.0141808,-0.001090831,-0.023998277,-0.36,-0.49,9.45,0,0,0
1454,-0.020725785,0,-0.030543262,-0.35,-0.42,9.39,0,0,0
1455,-0.0141808,0.002181662,-0.051269047,-0.45,-0.62,9.44,0,0,0
1456,-0.018544123,-0.002181662,-0.064359016,-0.33,-0.41,9.4,0,0,0
1457,-0.019634954,-0.003272492,-0.054541539,-0.36,-0.35,9.4,0,0,0
1458,0.015271631,-0.007635815,-0.018544123,-0.33,-0.14,9.49,0,0,0
1459,0.001090831,-0.009817477,-0.002181662,-0.48,-0.39,9.37,0,0,0
1460,0,-0.007635815,-0.023998277,-0.43,-0.39,9.44,0,0,0
1461,0.002181662,-0.007635815,-0.029452431,-0.34,-0.22,9.42,0,0,0
1462,-0.006544985,-0.005454154,-0.043633231,-0.27,-0.02,9.37,0,0,0
1463,-0.004363323,0,-0.010908308,-0.34,-0.18,9.42,0,0,0
1464,-0.013089969,0.002181662,-0.026179939,-0.34,-0.3,9.43,0,0,0
1465,-0.025089108,0.001090831,-0.022907446,-0.36,-0.36,9.4,0,0,0
1466,0.002181662,-0.001090831,-0.013089969,-0.35,-0.38,9.39,0,0,0
1467,0.004363323,-0.002181662,-0.009817477,-0.36,-0.38,9.39,0,0,0
1468,0.007635815,-0.002181662,-0.0141808,-0.36,-0.37,9.41,0,0,0
1469,-0.001090831,-0.004363323,-0.018544123,-0.38,-0.36,9.4,0,0,0
1470,0,-0.002181662,-0.013089969,-0.34,-0.38,9.37,0,0,0
1471,0.015271631,-0.003272492,0.003272492,-0.35,-0.4,9.43,0,0,0
1472,0.013089969,-0.001090831,0.002181662,-0.35,-0.41,9.43,0,0,0
1473,0.005454154,0.001090831,-0.009817477,-0.39,-0.4,9.39,0,0,0
1474,-0.004363323,0,-0.054541539,-0.37,-0.36,9.38,0,0,0
1475,-0.008726646,0.002181662,-0.059995693,-0.34,-0.42,9.41,0,0,0
1476,-0.003272492,0.003272492,-0.049087385,-0.22,-0.71,9.46,0,0,0
1477,-0.022907446,0.003272492,0.019634954,-0.31,-0.64,9.39,0,0,0
1478,-0.0141808,0.003272492,0.020725785,-0.34,-0.67,9.41,0,0,0
1479,-0.0141808,0.005454154,0.026179939,-0.31,-0.56,9.43,0,0,0
1480,-0.033815754,0.003272492,0.033815754,-0.36,-0.52,9.42,0,0,0
1481,-0.049087385,0.004363323,0.04145157,-0.31,-0.52,9.43,0,0,0
1482,-0.040360739,-0.001090831,0.06981317,-0.44,-0.23,9.38,0,0,0
1483,-0.011999139,-0.008726646,0.033815754,-0.55,-0.02,9.42,0,0,0
1484,-0.011999139,-0.009817477,-0.006544985,-0.33,-0.21,9.4,0,0,0
1485,-0.009817477,-0.004363323,0.013089969,-0.34,-0.22,9.41,0,0,0
1486,-0.017453293,-0.006544985,0.006544985,-0.45,-0.43,9.41,0,0,0
1487,-0.017453293,-0.005454154,-0.016362462,-0.33,-0.3,9.39,0,0,0
1488,-0.018544123,0,-0.045814893,-0.28,-0.31,9.42,0,0,0
1489,-0.032724923,-0.002181662,-0.006544985,-0.34,-0.55,9.38,0,0,0
1490,-0.026179939,0.007635815,0.011999139,-0.47,-0.64,9.4,0,0,0
1491,-0.0283616,0.004363323,-0.022907446,-0.39,-0.54,9.4,0,0,0
1492,-0.037088247,0.002181662,-0.039269908,-0.39,-0.45,9.5,0,0,0
1493,-0.050178216,-0.001090831,-0.032724923,-0.35,-0.34,9.34,0,0,0
1494,-0.033815754,-0.001090831,-0.008726646,-0.3,-0.39,9.39,0,0,0
1495,-0.030543262,-0.001090831,0.018544123,-0.54,-0.52,9.37,0,0,0
1496,0.005454154,-0.006544985,-0.04145157,-0.39,-0.39,9.44,0,0,0
1497,-0.013089969,-0.007635815,-0.058904862,-0.3,-0.43,9.39,0,0,0
1498,-0.0141808,-0.003272492,-0.049087385,-0.26,-0.33,9.32,0,0,0
1499,0.006544985,-0.001090831,-0.026179939,-0.26,-0.37,9.39,0,0,0
1500,-0.018544123,-0.001090831,-0.001090831,-0.34,-0.46,9.37,0,0,0
1501,-0.016362462,0.004363323,0.005454154,-0.34,-0.38,9.41,0,0,0
1502,-0.020725785,0.005454154,-0.003272492,-0.3,-0.31,9.36,0,0,0
1503,-0.017453293,0.002181662,-0.005454154,-0.38,-0.55,9.37,0,0,0
1504,-0.020725785,-0.001090831,-0.022907446,-0.29,-0.38,9.32,0,0,0
1505,-0.001090831,-0.001090831,-0.032724923,-0.33,-0.31,9.47,0,0,0
1506,-0.001090831,-0.004363323,-0.026179939,-0.31,-0.27,9.39,0,0,0
1507,-0.007635815,-0.007635815,-0.02727077,-0.38,-0.46,9.37,0,0,0
1508,0,-0.008726646,-0.018544123,-0.4,-0.45,9.39,0,0,0
1509,0.007635815,-0.010908308,-0.034906585,-0.43,-0.46,9.39,0,0,0
1510,-0.004363323,-0.011999139,-0.043633231,-0.37,-0.46,9.39,0,0,0
1511,0.002181662,-0.008726646,-0.035997416,-0.35,-0.51,9.39,0,0,0
1512,0.013089969,-0.008726646,-0.031634093,-0.28,-0.48,9.42,0,0,0
1513,0.0141808,-0.004363323,0.003272492,-0.33,-0.48,9.54,0,0,0
1514,-0.025089108,0,0.062177355,-0.43,-0.6,9.27,0,0,0
1515,0.001090831,-0.004363323,0.032724923,-0.42,-0.42,9.42,0,0,0
1516,0.008726646,-0.003272492,0.019634954,-0.36,-0.35,9.39,0,0,0
1517,0.019634954,-0.006544985,-0.007635815,-0.31,-0.37,9.4,0,0,0
1518,-0.018544123,-0.004363323,-0.0283616,-0.34,-0.44,9.37,0,0,0
1519,-0.020725785,0.001090831,-0.018544123,-0.37,-0.46,9.4,0,0,0
1520,0.0141808,-0.004363323,-0.007635815,-0.35,-0.49,9.39,0,0,0
1521,0.0283616,-0.003272492,-0.002181662,-0.37,-0.52,9.39,0,0,0
1522,0.025089108,-0.003272492,0.007635815,-0.53,-0.7,9.33,0,0,0
1523,-0.022907446,0.001090831,0.0283616,-0.23,-0.57,9.44,0,0,0
1524,-0.013089969,-0.003272492,0.010908308,-0.41,-0.4,9.38,0,0,0
1525,-0.026179939,-0.001090831,0.046905724,-0.39,-0.26,9.43,0,0,0
1526,0.009817477,-0.008726646,0.015271631,-0.34,-0.23,9.45,0,0,0
1527,0.002181662,-0.006544985,0.006544985,-0.39,-0.3,9.41,0,0,0
1528,-0.023998277,-0.001090831,-0.039269908,-0.34,-0.44,9.37,0,0,0
1529,-0.04145157,-0.001090831,-0.0283616,-0.34,-0.52,9.4,0,0,0
1530,-0.021816616,0.002181662,-0.011999139,-0.36,-0.49,9.39,0,0,0
1531,0.037088247,-0.004363323,-0.004363323,-0.37,-0.46,9.4,0,0,0
1532,0.032724923,-0.006544985,-0.007635815,-0.33,-0.51,9.4,0,0,0
1533,0.001090831,-0.003272492,-0.015271631,-0.35,-0.39,9.44,0,0,0
1534,0.003272492,-0.003272492,-0.004363323,-0.36,-0.4,9.42,0,0,0
1535,-0.002181662,-0.002181662,-0.004363323,-0.35,-0.48,9.39,0,0,0
1536,-0.001090831,-0.001090831,-0.006544985,-0.36,-0.47,9.41,0,0,0
1537,0.002181662,0.002181662,-0.008726646,-0.37,-0.45,9.46,0,0,0
1538,-0.013089969,0.002181662,-0.007635815,-0.36,-0.45,9.41,0,0,0
1539,-0.016362462,0.002181662,-0.007635815,-0.4,-0.49,9.36,0,0,0
1540,-0.010908308,-0.004363323,-0.007635815,-0.39,-0.49,9.35,0,0,0
1541,0.02727077,-0.009817477,-0.007635815,-0.36,-0.46,9.4,0,0,0
1542,0.043633231,-0.011999139,-0.013089969,-0.35,-0.44,9.43,0,0,0
1543,0.019634954,-0.004363323,-0.019634954,-0.33,-0.4,9.42,0,0,0
1544,-0.002181662,0.001090831,-0.015271631,-0.36,-0.42,9.4,0,0,0
1545,-0.009817477,0.004363323,-0.003272492,-0.35,-0.45,9.38,0,0,0
1546,-0.008726646,0.001090831,-0.002181662,-0.38,-0.42,9.39,0,0,0
1547,-0.007635815,0.001090831,-0.007635815,-0.38,-0.45,9.37,0,0,0
1548,0.001090831,-0.004363323,-0.011999139,-0.36,-0.42,9.43,0,0,0
1549,0.009817477,-0.002181662,-0.016362462,-0.35,-0.45,9.4,0,0,0
1550,0.010908308,-0.002181662,-0.020725785,-0.33,-0.46,9.41,0,0,0
1551,0.007635815,-0.002181662,-0.019634954,-0.34,-0.42,9.44,0,0,0
1552,0.003272492,-0.001090831,-0.019634954,-0.35,-0.42,9.41,0,0,0
1553,-0.015271631,0,-0.008726646,-0.36,-0.43,9.41,0,0,0
1554,-0.021816616,0.004363323,-0.009817477,-0.34,-0.46,9.39,0,0,0
1555,-0.023998277,0.003272492,-0.002181662,-0.37,-0.45,9.4,0,0,0
1556,-0.019634954,0,0.001090831,-0.36,-0.41,9.43,0,0,0
1557,-0.022907446,-0.001090831,-0.002181662,-0.35,-0.44,9.4,0,0,0
1558,-0.052359878,-0.002181662,-0.003272492,-0.38,-0.47,9.42,0,0,0
1559,-0.05563237,0.003272492,-0.011999139,-0.38,-0.45,9.45,0,0,0
1560,-0.06981317,0.002181662,-0.017453293,-0.41,-0.45,9.39,0,0,0
1561,-0.065449847,-0.005454154,-0.053450708,-0.5,-0.44,9.32,0,0,0
1562,-0.056723201,-0.007635815,-0.094902278,-0.26,-0.41,9.55,0,0,0
1563,-0.062177355,-0.006544985,-0.107992247,-0.31,-0.51,9.46,0,0,0
1564,-0.128718032,0.001090831,-0.066540678,-0.37,-0.53,9.38,0,0,0
1565,-0.112355571,-0.001090831,-0.063268185,-0.46,-0.58,9.28,0,0,0
1566,-0.068722339,-0.008726646,-0.094902278,-0.45,-0.6,9.27,0,0,0
1567,-0.009817477,-0.006544985,-0.161442956,-0.53,-0.53,9.24,0,0,0
1568,-0.040360739,-0.004363323,-0.177805418,-0.37,-0.46,9.37,0,0,0
1569,-0.021816616,-0.007635815,-0.199622033,-0.33,-0.39,9.2,0,0,0
1570,0.080721478,-0.005454154,-0.162533787,-0.31,-0.39,9.64,0,0,0
1571,0.117809725,-0.003272492,-0.116718894,-0.41,-0.38,9.42,0,0,0
1572,0.09708394,-0.005454154,-0.043633231,-0.4,-0.56,9.36,0,0,0
1573,0.09708394,-0.005454154,-0.064359016,-0.39,-0.54,9.53,0,0,0
1574,0.078539816,-0.005454154,-0.089448124,-0.42,-0.45,9.3,0,0,0
1575,0.073085662,0.001090831,-0.119991386,-0.36,-0.26,9.38,0,0,0
1576,0.100356432,0,-0.123263878,-0.19,-0.46,9.44,0,0,0
1577,0.116718894,-0.004363323,-0.076358155,-0.19,-0.5,9.5,0,0,0
1578,0.080721478,-0.002181662,0.018544123,-0.16,-0.37,9.25,0,0,0
1579,0.05563237,0.003272492,0.057814031,-0.36,-0.57,9.48,0,0,0
1580,0.045814893,0.001090831,0.054541539,-0.5,-0.45,9.46,0,0,0
1581,0.033815754,-0.003272492,-0.021816616,-0.43,-0.27,9.37,0,0,0
1582,0.045814893,-0.009817477,-0.068722339,-0.39,-0.22,9.4,0,0,0
1583,0.058904862,-0.008726646,-0.051269047,-0.36,-0.28,9.42,0,0,0
1584,0.062177355,-0.006544985,-0.052359878,-0.33,-0.33,9.42,0,0,0
1585,0.051269047,-0.004363323,-0.066540678,-0.37,-0.44,9.5,0,0,0
1586,0.0141808,0.001090831,-0.047996554,-0.22,-0.2,9.36,0,0,0
1587,0.018544123,0.005454154,0.016362462,-0.23,-0.33,9.4,0,0,0
1588,0.009817477,0.006544985,0.070904001,-0.33,-0.24,9.38,0,0,0
1589,0.016362462,0,0.019634954,-0.38,-0.34,9.39,0,0,0
1590,0.019634954,-0.005454154,0.010908308,-0.35,-0.24,9.39,0,0,0
1591,0.010908308,-0.004363323,0.006544985,-0.31,-0.51,9.4,0,0,0
1592,0.013089969,-0.002181662,0.031634093,-0.28,-0.41,9.39,0,0,0
1593,0.0141808,-0.003272492,0.056723201,-0.33,-0.62,9.39,0,0,0
1594,-0.006544985,0.001090831,0.075267324,-0.45,-0.48,9.4,0,0,0
1595,-0.006544985,0.001090831,0.077448986,-0.47,-0.47,9.41,0,0,0
1596,-0.008726646,-0.002181662,0.057814031,-0.43,-0.19,9.36,0,0,0
1597,-0.008726646,-0.005454154,0.015271631,-0.4,-0.33,9.37,0,0,0
1598,-0.001090831,-0.006544985,0,-0.32,-0.45,9.41,0,0,0
1599,-0.001090831,-0.006544985,-0.008726646,-0.38,-0.62,9.44,0,0,0
1600,-0.002181662,-0.009817477,-0.007635815,-0.32,-0.39,9.39,0,0,0
1601,0,-0.008726646,-0.023998277,-0.33,-0.47,9.4,0,0,0
1602,-0.007635815,-0.004363323,0.021816616,-0.37,-0.32,9.41,0,0,0
1603,-0.006544985,-0.001090831,0.016362462,-0.28,-0.18,9.4,0,0,0
1604,-0.009817477,-0.003272492,0.039269908,-0.31,-0.38,9.36,0,0,0
1605,-0.001090831,-0.001090831,0.019634954,-0.35,-0.48,9.4,0,0,0
1606,0,-0.007635815,-0.001090831,-0.38,-0.44,9.42,0,0,0
1607,0,-0.003272492,-0.023998277,-0.33,-0.35,9.41,0,0,0
1608,-0.002181662,-0.006544985,-0.023998277,-0.38,-0.4,9.43,0,0,0
1609,-0.006544985,0.001090831,-0.005454154,-0.32,-0.14,9.42,0,0,0
1610,0.001090831,0,0.020725785,-0.4,-0.31,9.44,0,0,0
1611,-0.001090831,-0.003272492,-0.015271631,-0.4,-0.37,9.41,0,0,0
1612,-0.008726646,-0.003272492,-0.020725785,-0.27,-0.13,9.37,0,0,0
1613,-0.005454154,0,-0.026179939,-0.37,-0.46,9.43,0,0,0
1614,-0.007635815,0,-0.023998277,-0.23,-0.28,9.39,0,0,0
1615,-0.005454154,0.003272492,-0.010908308,-0.27,-0.34,9.38,0,0,0
1616,-0.008726646,0.008726646,0.033815754,-0.33,-0.33,9.43,0,0,0
1617,-0.015271631,0.003272492,0.039269908,-0.34,-0.2,9.39,0,0,0
1618,-0.010908308,0.003272492,0.046905724,-0.32,0,9.37,0,0,0
1619,-0.015271631,0.002181662,-0.011999139,-0.35,-0.23,9.41,0,0,0
1620,-0.015271631,0,-0.010908308,-0.33,-0.23,9.42,0,0,0
1621,-0.019634954,0.001090831,0.018544123,-0.2,-0.03,9.41,0,0,0
1622,-0.010908308,0.004363323,-0.009817477,-0.29,-0.29,9.36,0,0,0
1623,-0.007635815,0.006544985,0.035997416,-0.35,-0.42,9.43,0,0,0
1624,-0.011999139,0.006544985,0.020725785,-0.43,-0.4,9.42,0,0,0
1625,-0.010908308,0.002181662,0.029452431,-0.37,-0.33,9.38,0,0,0
1626,-0.010908308,0.001090831,0.032724923,-0.34,-0.35,9.39,0,0,0
1627,-0.009817477,-0.005454154,0.04145157,-0.39,-0.43,9.42,0,0,0
1628,-0.004363323,-0.002181662,0.029452431,-0.49,-0.29,9.44,0,0,0
1629,-0.008726646,-0.004363323,0.005454154,-0.37,-0.42,9.4,0,0,0
1630,-0.001090831,-0.003272492,-0.0141808,-0.3,-0.37,9.36,0,0,0
1631,-0.004363323,-0.001090831,-0.011999139,-0.2,-0.52,9.4,0,0,0
1632,-0.001090831,-0.001090831,0.008726646,-0.31,-0.69,9.41,0,0,0
1633,-0.003272492,-0.001090831,0.077448986,-0.45,-0.73,9.39,0,0,0
1634,-0.006544985,-0.004363323,0.045814893,-0.37,-0.53,9.39,0,0,0
1635,0.001090831,-0.003272492,0.015271631,-0.43,-0.31,9.39,0,0,0
1636,0.009817477,-0.002181662,0.021816616,-0.39,-0.34,9.43,0,0,0
1637,0.011999139,-0.006544985,0.046905724,-0.28,-0.41,9.42,0,0,0
1638,0.010908308,-0.007635815,0.061086524,-0.38,-0.39,9.39,0,0,0
1639,0.003272492,-0.004363323,0.054541539,-0.4,-0.51,9.39,0,0,0
1640,0.002181662,-0.003272492,0.013089969,-0.4,-0.43,9.38,0,0,0
1641,-0.001090831,-0.002181662,0.009817477,-0.39,-0.35,9.38,0,0,0
1642,0.003272492,0,0.006544985,-0.37,-0.34,9.37,0,0,0
1643,0.002181662,-0.003272492,-0.001090831,-0.28,-0.29,9.39,0,0,0
1644,0.007635815,-0.005454154,-0.007635815,-0.33,-0.44,9.43,0,0,0
1645,0.006544985,-0.002181662,-0.008726646,-0.36,-0.33,9.42,0,0,0
1646,0.006544985,-0.003272492,-0.010908308,-0.23,-0.2,9.38,0,0,0
1647,0.004363323,-0.007635815,-0.002181662,-0.37,-0.32,9.39,0,0,0
1648,0.011999139,-0.009817477,-0.007635815,-0.34,-0.42,9.41,0,0,0
1649,0.006544985,-0.002181662,-0.011999139,-0.3,-0.18,9.41,0,0,0
1650,0.013089969,-0.002181662,-0.020725785,-0.26,-0.29,9.39,0,0,0
1651,0.010908308,-0.001090831,-0.02727077,-0.28,-0.28,9.4,0,0,0
1652,0.010908308,-0.001090831,-0.009817477,-0.38,-0.31,9.4,0,0,0
1653,0.013089969,-0.002181662,-0.0283616,-0.34,-0.4,9.42,0,0,0
1654,0.011999139,-0.006544985,-0.023998277,-0.41,-0.31,9.42,0,0,0
1655,0.010908308,-0.008726646,-0.04145157,-0.29,-0.06,9.38,0,0,0
1656,0.011999139,-0.006544985,-0.058904862,-0.39,-0.26,9.44,0,0,0
1657,0.013089969,-0.004363323,-0.045814893,-0.26,-0.22,9.41,0,0,0
1658,0.010908308,0.001090831,-0.007635815,-0.33,-0.45,9.4,0,0,0
1659,0.011999139,0,-0.001090831,-0.37,-0.27,9.41,0,0,0
1660,0.015271631,-0.002181662,-0.013089969,-0.43,-0.41,9.41,0,0,0
1661,0.018544123,-0.001090831,-0.026179939,-0.33,-0.35,9.4,0,0,0
1662,0.017453293,-0.003272492,-0.031634093,-0.3,-0.33,9.42,0,0,0
1663,0.018544123,-0.001090831,-0.029452431,-0.35,-0.3,9.39,0,0,0
1664,0.016362462,0.002181662,-0.003272492,-0.21,-0.37,9.43,0,0,0
1665,0.019634954,0.001090831,0.030543262,-0.47,-0.56,9.42,0,0,0
1666,0.019634954,-0.003272492,0.005454154,-0.38,-0.49,9.41,0,0,0
1667,0.017453293,0.003272492,0.010908308,-0.44,-0.36,9.42,0,0,0
1668,0.016362462,-0.001090831,0.009817477,-0.3,-0.21,9.41,0,0,0
1669,0.016362462,-0.004363323,0.058904862,-0.27,-0.42,9.4,0,0,0
1670,0.018544123,-0.001090831,0.068722339,-0.31,-0.32,9.38,0,0,0
1671,0.017453293,0,0.074176493,-0.28,-0.4,9.38,0,0,0
1672,0.011999139,-0.001090831,0.090538955,-0.46,-0.55,9.39,0,0,0
1673,0.016362462,-0.001090831,0.039269908,-0.51,-0.49,9.41,0,0,0
1674,0.010908308,-0.006544985,-0.001090831,-0.32,-0.35,9.38,0,0,0
1675,0.007635815,-0.004363323,-0.018544123,-0.22,-0.22,9.43,0,0,0
1676,0.004363323,-0.001090831,0.015271631,-0.21,-0.16,9.41,0,0,0
1677,0.007635815,-0.004363323,0.051269047,-0.36,-0.46,9.4,0,0,0
1678,0.010908308,-0.005454154,0.049087385,-0.37,-0.38,9.43,0,0,0
1679,0,-0.007635815,0.018544123,-0.39,-0.35,9.41,0,0,0
1680,0.003272492,-0.003272492,-0.004363323,-0.37,-0.34,9.37,0,0,0
1681,0.004363323,0.001090831,0,-0.31,-0.38,9.39,0,0,0
1682,-0.004363323,-0.004363323,0.001090831,-0.22,-0.3,9.42,0,0,0
1683,-0.009817477,-0.002181662,0.019634954,-0.33,-0.49,9.4,0,0,0
1684,-0.011999139,-0.001090831,0.0141808,-0.44,-0.46,9.43,0,0,0
1685,-0.016362462,0,0.002181662,-0.43,-0.15,9.39,0,0,0
1686,-0.015271631,0,-0.004363323,-0.37,-0.3,9.39,0,0,0
1687,-0.015271631,-0.001090831,0.008726646,-0.33,-0.35,9.38,0,0,0
1688,-0.020725785,-0.002181662,0.004363323,-0.26,-0.41,9.41,0,0,0
1689,-0.021816616,-0.002181662,0.001090831,-0.26,-0.17,9.4,0,0,0
1690,-0.011999139,0.002181662,-0.005454154,-0.3,-0.26,9.43,0,0,0
1691,-0.010908308,0,0.017453293,-0.38,-0.41,9.42,0,0,0
1692,-0.009817477,0.005454154,-0.007635815,-0.34,-0.42,9.42,0,0,0
1693,-0.005454154,0.004363323,0.006544985,-0.44,-0.46,9.46,0,0,0
1694,-0.009817477,0.001090831,-0.018544123,-0.44,-0.32,9.39,0,0,0
1695,-0.007635815,0,-0.046905724,-0.37,-0.4,9.43,0,0,0
1696,-0.008726646,0.001090831,-0.045814893,-0.3,-0.21,9.4,0,0,0
1697,-0.007635815,0.002181662,-0.063268185,-0.27,-0.24,9.39,0,0,0
1698,-0.004363323,0,-0.042542401,-0.22,-0.29,9.41,0,0,0
1699,0.002181662,0.001090831,0.007635815,-0.23,-0.4,9.39,0,0,0
1700,-0.003272492,0,0.017453293,-0.45,-0.39,9.4,0,0,0
1701,0.003272492,-0.001090831,0.007635815,-0.5,-0.34,9.39,0,0,0
1702,0.006544985,0.001090831,-0.007635815,-0.34,-0.44,9.44,0,0,0
1703,0.007635815,-0.002181662,-0.015271631,-0.38,-0.38,9.4,0,0,0
1704,0.007635815,-0.002181662,-0.02727077,-0.26,-0.43,9.42,0,0,0
1705,0.002181662,-0.001090831,-0.005454154,-0.27,-0.49,9.39,0,0,0
1706,0.006544985,0.002181662,0.049087385,-0.41,-0.65,9.4,0,0,0
1707,0.007635815,0,0.059995693,-0.49,-0.63,9.42,0,0,0
1708,0.003272492,0,0.032724923,-0.45,-0.33,9.39,0,0,0
1709,0.002181662,-0.002181662,0.015271631,-0.41,-0.21,9.39,0,0,0
1710,-0.001090831,-0.001090831,0.02727077,-0.32,-0.22,9.42,0,0,0
1711,0,0.002181662,-0.002181662,-0.27,-0.2,9.42,0,0,0
1712,0.004363323,0.004363323,0.032724923,-0.33,-0.14,9.4,0,0,0
1713,0.003272492,0.001090831,0.057814031,-0.33,-0.34,9.42,0,0,0
1714,0.003272492,-0.003272492,0.05563237,-0.34,-0.31,9.4,0,0,0
1715,0,-0.004363323,0.054541539,-0.34,-0.48,9.44,0,0,0
1716,-0.002181662,-0.001090831,0.056723201,-0.37,-0.56,9.39,0,0,0
1717,0.004363323,0,0.035997416,-0.33,-0.55,9.43,0,0,0
1718,-0.004363323,-0.002181662,0.023998277,-0.29,-0.51,9.39,0,0,0
1719,-0.002181662,-0.002181662,0.043633231,-0.28,-0.39,9.39,0,0,0
1720,0.004363323,0,0.085084801,-0.4,-0.61,9.4,0,0,0
1721,0.003272492,-0.003272492,0.073085662,-0.29,-0.41,9.4,0,0,0
1722,0.003272492,0,0.059995693,-0.39,-0.54,9.41,0,0,0
1723,-0.003272492,-0.001090831,0.025089108,-0.29,-0.33,9.4,0,0,0
1724,0.001090831,-0.005454154,0.016362462,-0.25,-0.43,9.39,0,0,0
1725,-0.003272492,-0.005454154,0.031634093,-0.29,-0.3,9.44,0,0,0
1726,0,-0.004363323,0.042542401,-0.25,-0.33,9.43,0,0,0
1727,-0.001090831,-0.003272492,0.050178216,-0.39,-0.46,9.43,0,0,0
1728,-0.003272492,-0.007635815,0.021816616,-0.34,-0.41,9.39,0,0,0
1729,-0.001090831,-0.003272492,-0.002181662,-0.32,-0.54,9.39,0,0,0
1730,0,-0.005454154,0.020725785,-0.27,-0.34,9.4,0,0,0
1731,-0.002181662,-0.003272492,0.049087385,-0.41,-0.46,9.4,0,0,0
1732,-0.001090831,-0.004363323,0.046905724,-0.3,-0.24,9.38,0,0,0
1733,0,-0.006544985,0.008726646,-0.44,-0.5,9.42,0,0,0
1734,-0.001090831,-0.003272492,0.001090831,-0.43,-0.44,9.41,0,0,0
1735,0,-0.003272492,-0.017453293,-0.25,-0.35,9.4,0,0,0
1736,-0.001090831,0,0.005454154,-0.27,-0.33,9.41,0,0,0
1737,-0.004363323,-0.004363323,0.031634093,-0.37,-0.49,9.42,0,0,0
1738,-0.004363323,-0.004363323,0.059995693,-0.44,-0.73,9.38,0,0,0
1739,-0.008726646,-0.002181662,-0.018544123,-0.34,-0.25,9.41,0,0,0
1740,-0.004363323,-0.002181662,-0.052359878,-0.3,-0.25,9.43,0,0,0
1741,-0.001090831,0,-0.006544985,-0.33,-0.07,9.4,0,0,0
1742,-0.001090831,-0.002181662,0.063268185,-0.34,-0.29,9.41,0,0,0
1743,-0.003272492,-0.002181662,0.064359016,-0.28,-0.19,9.42,0,0,0
1744,-0.004363323,-0.001090831,0.063268185,-0.34,-0.47,9.41,0,0,0
1745,0,0,0.049087385,-0.33,-0.53,9.39,0,0,0
1746,-0.003272492,-0.004363323,0.030543262,-0.41,-0.55,9.4,0,0,0
1747,-0.001090831,-0.004363323,0.019634954,-0.32,-0.37,9.39,0,0,0
1748,-0.005454154,-0.001090831,0.007635815,-0.33,-0.37,9.4,0,0,0
1749,-0.006544985,-0.001090831,0.013089969,-0.31,-0.21,9.39,0,0,0
1750,-0.002181662,0.002181662,0.004363323,-0.29,-0.28,9.4,0,0,0
1751,-0.002181662,0.003272492,0.010908308,-0.29,-0.19,9.39,0,0,0
1752,-0.001090831,-0.002181662,0.051269047,-0.32,-0.28,9.39,0,0,0
1753,-0.003272492,-0.004363323,0.039269908,-0.34,-0.4,9.41,0,0,0
1754,-0.002181662,-0.001090831,0.031634093,-0.32,-0.42,9.4,0,0,0
1755,-0.001090831,-0.001090831,0.015271631,-0.45,-0.45,9.39,0,0,0
1756,-0.003272492,0,0.022907446,-0.42,-0.41,9.39,0,0,0
1757,-0.004363323,0.001090831,-0.018544123,-0.28,-0.13,9.39,0,0,0
1758,-0.004363323,-0.003272492,-0.011999139,-0.42,-0.46,9.43,0,0,0
1759,-0.004363323,-0.001090831,-0.026179939,-0.33,-0.03,9.38,0,0,0
1760,-0.004363323,-0.003272492,-0.004363323,-0.36,-0.16,9.39,0,0,0
1761,-0.002181662,-0.004363323,0.023998277,-0.34,-0.01,9.35,0,0,0
1762,0.001090831,-0.003272492,0.0283616,-0.27,-0.35,9.42,0,0,0
1763,0.001090831,-0.003272492,0.0283616,-0.24,-0.13,9.39,0,0,0
1764,-0.003272492,-0.001090831,0.011999139,-0.34,-0.37,9.39,0,0,0
1765,-0.001090831,-0.001090831,0.002181662,-0.42,-0.4,9.39,0,0,0
1766,0.004363323,-0.002181662,0.002181662,-0.4,-0.59,9.43,0,0,0
1767,0.003272492,-0.002181662,-0.004363323,-0.4,-0.34,9.39,0,0,0
1768,0.002181662,-0.003272492,0.001090831,-0.33,-0.21,9.4,0,0,0
1769,0.009817477,-0.006544985,-0.013089969,-0.21,-0.17,9.4,0,0,0
1770,0.009817477,-0.006544985,-0.013089969,-0.32,-0.33,9.42,0,0,0
1771,0.013089969,-0.003272492,-0.003272492,-0.3,-0.2,9.42,0,0,0
1772,0.0141808,-0.003272492,0.005454154,-0.32,-0.25,9.4,0,0,0
1773,0.0141808,-0.002181662,0.009817477,-0.35,-0.42,9.41,0,0,0
1774,0.015271631,-0.003272492,0.031634093,-0.32,-0.37,9.39,0,0,0
1775,0.0141808,-0.004363323,0.016362462,-0.35,-0.23,9.39,0,0,0
1776,0.019634954,-0.007635815,0.02727077,-0.36,-0.09,9.4,0,0,0
1777,0.018544123,-0.006544985,0.034906585,-0.44,-0.4,9.37,0,0,0
1778,0.015271631,-0.005454154,0.018544123,-0.31,-0.13,9.4,0,0,0
1779,0.016362462,-0.002181662,0.052359878,-0.29,-0.19,9.43,0,0,0
1780,0.016362462,-0.002181662,0.082903139,-0.28,-0.46,9.44,0,0,0
1781,0.016362462,-0.002181662,0.082903139,-0.34,-0.36,9.43,0,0,0
1782,0.010908308,0,0.031634093,-0.37,-0.43,9.42,0,0,0
1783,0.0141808,-0.004363323,0.025089108,-0.3,-0.38,9.41,0,0,0
1784,0.013089969,0,0.030543262,-0.31,-0.24,9.38,0,0,0
1785,0.009817477,0,0.031634093,-0.36,-0.57,9.4,0,0,0
1786,0.009817477,-0.001090831,0.031634093,-0.32,-0.2,9.38,0,0,0
1787,0.009817477,-0.001090831,0.034906585,-0.32,-0.48,9.4,0,0,0
1788,0.008726646,0.001090831,0.046905724,-0.3,-0.4,9.41,0,0,0
1789,0.009817477,-0.002181662,0.088357293,-0.36,-0.43,9.4,0,0,0
1790,0.005454154,-0.001090831,0.067631509,-0.42,-0.56,9.41,0,0,0
1791,0.005454154,0,0.021816616,-0.46,-0.38,9.4,0,0,0
1792,0.005454154,0.001090831,0.017453293,-0.34,-0.23,9.41,0,0,0
1793,0.005454154,-0.001090831,0.001090831,-0.28,-0.33,9.39,0,0,0
1794,0.004363323,0,0.005454154,-0.25,-0.38,9.39,0,0,0
1795,0.005454154,0.002181662,0.007635815,-0.23,-0.53,9.43,0,0,0
1796,-0.001090831,0.002181662,0.016362462,-0.43,-0.54,9.39,0,0,0
1797,-0.001090831,0.001090831,-0.008726646,-0.42,-0.49,9.41,0,0,0
1798,0.001090831,0.002181662,-0.026179939,-0.43,-0.39,9.42,0,0,0
1799,-0.003272492,0.002181662,-0.059995693,-0.35,-0.31,9.38,0,0,0
1800,-0.005454154,0.003272492,-0.057814031,-0.3,-0.38,9.4,0,0,0
1801,-0.002181662,0,-0.049087385,-0.26,-0.39,9.43,0,0,0
1802,-0.004363323,0.001090831,0.010908308,-0.29,-0.19,9.39,0,0,0
1803,-0.002181662,0.001090831,0.0283616,-0.45,-0.31,9.39,0,0,0
1804,-0.001090831,-0.001090831,0.015271631,-0.4,-0.29,9.41,0,0,0
1805,0.005454154,-0.002181662,-0.009817477,-0.35,-0.17,9.41,0,0,0
1806,0.002181662,-0.001090831,-0.010908308,-0.3,-0.23,9.38,0,0,0
1807,-0.003272492,0.002181662,-0.031634093,-0.24,-0.17,9.39,0,0,0
1808,0,-0.002181662,-0.013089969,-0.27,-0.29,9.39,0,0,0
1809,0.002181662,-0.005454154,0.0141808,-0.35,-0.33,9.39,0,0,0
1810,-0.001090831,-0.001090831,0.031634093,-0.29,-0.18,9.41,0,0,0
1811,0.002181662,-0.003272492,0.05563237,-0.35,-0.32,9.41,0,0,0
1812,0,0,0.034906585,-0.34,-0.29,9.38,0,0,0
1813,0.002181662,0,0.031634093,-0.37,-0.41,9.42,0,0,0
1814,0.001090831,-0.003272492,0.02727077,-0.33,-0.36,9.4,0,0,0
1815,0.001090831,-0.001090831,0.056723201,-0.29,-0.16,9.4,0,0,0
1816,0.002181662,0,0.064359016,-0.3,-0.24,9.42,0,0,0
1817,0,-0.003272492,0.035997416,-0.34,-0.15,9.41,0,0,0
1818,0.003272492,-0.006544985,0.0141808,-0.34,-0.18,9.39,0,0,0
1819,0.002181662,-0.004363323,0.0141808,-0.34,-0.22,9.41,0,0,0
1820,0.006544985,-0.006544985,0.063268185,-0.38,-0.44,9.42,0,0,0
1821,0.002181662,-0.004363323,0.054541539,-0.37,-0.43,9.38,0,0,0
1822,0,0.001090831,0.040360739,-0.42,-0.36,9.4,0,0,0
1823,0.003272492,-0.005454154,-0.016362462,-0.36,-0.35,9.4,0,0,0
1824,0.002181662,-0.007635815,0.006544985,-0.33,-0.27,9.41,0,0,0
1825,0.002181662,-0.004363323,0.022907446,-0.35,-0.34,9.4,0,0,0
1826,0.007635815,-0.005454154,0.010908308,-0.38,-0.46,9.41,0,0,0
1827,0.002181662,-0.005454154,-0.001090831,-0.28,-0.2,9.42,0,0,0
1828,0.001090831,-0.001090831,0.031634093,-0.38,-0.4,9.4,0,0,0
1829,0.003272492,-0.003272492,0.026179939,-0.39,-0.44,9.39,0,0,0
1830,0.001090831,-0.002181662,0.011999139,-0.34,-0.4,9.39,0,0,0
1831,0.001090831,-0.001090831,-0.010908308,-0.37,-0.39,9.42,0,0,0
1832,0.001090831,-0.001090831,-0.022907446,-0.32,-0.21,9.39,0,0,0
1833,0.001090831,-0.001090831,-0.010908308,-0.34,-0.29,9.4,0,0,0
1834,-0.001090831,-0.004363323,0.010908308,-0.31,-0.09,9.42,0,0,0
1835,0.001090831,-0.004363323,0.011999139,-0.3,-0.3,9.39,0,0,0
1836,0.001090831,-0.004363323,0.0283616,-0.36,-0.35,9.39,0,0,0
1837,0.002181662,-0.001090831,0.032724923,-0.45,-0.4,9.39,0,0,0
1838,-0.002181662,-0.005454154,0.003272492,-0.39,-0.1,9.38,0,0,0
1839,0.001090831,-0.003272492,-0.008726646,-0.3,-0.39,9.37,0,0,0
1840,-0.001090831,-0.002181662,-0.017453293,-0.25,-0.2,9.39,0,0,0
1841,-0.001090831,-0.007635815,-0.011999139,-0.3,-0.44,9.44,0,0,0
1842,0.001090831,-0.003272492,-0.007635815,-0.3,-0.38,9.41,0,0,0
1843,0,-0.004363323,0.005454154,-0.27,-0.34,9.39,0,0,0
1844,-0.002181662,-0.001090831,0.04145157,-0.4,-0.35,9.4,0,0,0
1845,0,-0.001090831,0.029452431,-0.33,-0.27,9.39,0,0,0
1846,-0.002181662,-0.003272492,0.0283616,-0.33,-0.32,9.37,0,0,0
1847,0,-0.008726646,0.017453293,-0.34,-0.48,9.39,0,0,0
1848,0,-0.007635815,-0.004363323,-0.38,-0.45,9.41,0,0,0
1849,-0.002181662,-0.007635815,0.002181662,-0.33,-0.49,9.42,0,0,0
1850,-0.001090831,0,0.039269908,-0.38,-0.42,9.39,0,0,0
1851,-0.002181662,-0.001090831,0.019634954,-0.31,-0.32,9.39,0,0,0
1852,-0.002181662,-0.003272492,-0.011999139,-0.32,-0.34,9.39,0,0,0
1853,-0.001090831,-0.003272492,-0.009817477,-0.31,-0.39,9.4,0,0,0
1854,-0.003272492,-0.003272492,0.011999139,-0.37,-0.38,9.4,0,0,0
1855,-0.001090831,-0.002181662,0.001090831,-0.35,-0.2,9.38,0,0,0
1856,0.001090831,-0.005454154,-0.006544985,-0.31,-0.28,9.43,0,0,0
1857,0,-0.001090831,0.002181662,-0.31,-0.31,9.39,0,0,0
1858,-0.002181662,0,0.002181662,-0.32,-0.22,9.41,0,0,0
1859,-0.003272492,-0.001090831,-0.009817477,-0.36,-0.43,9.39,0,0,0
1860,-0.003272492,-0.002181662,-0.006544985,-0.33,-0.29,9.39,0,0,0
1861,-0.001090831,-0.006544985,0.003272492,-0.37,-0.4,9.4,0,0,0
1862,-0.003272492,-0.008726646,-0.003272492,-0.33,-0.33,9.4,0,0,0
1863,-0.001090831,-0.002181662,0.0141808,-0.37,-0.32,9.42,0,0,0
1864,-0.001090831,-0.008726646,-0.033815754,-0.33,-0.31,9.42,0,0,0
1865,0.001090831,-0.004363323,-0.039269908,-0.3,-0.23,9.39,0,0,0
1866,-0.001090831,-0.003272492,-0.030543262,-0.34,-0.32,9.41,0,0,0
1867,0.001090831,0.002181662,-0.020725785,-0.31,-0.23,9.38,0,0,0
1868,0.001090831,0.001090831,0.001090831,-0.34,-0.22,9.37,0,0,0
1869,-0.001090831,-0.001090831,0.034906585,-0.31,-0.27,9.4,0,0,0
1870,-0.001090831,-0.002181662,0.052359878,-0.33,-0.21,9.42,0,0,0
1871,-0.002181662,-0.005454154,0.047996554,-0.33,-0.25,9.43,0,0,0
1872,-0.001090831,-0.006544985,0.001090831,-0.38,-0.31,9.39,0,0,0
1873,-0.003272492,-0.004363323,-0.022907446,-0.29,-0.09,9.38,0,0,0
1874,-0.003272492,-0.004363323,0.009817477,-0.35,-0.12,9.42,0,0,0
1875,-0.003272492,-0.007635815,0.051269047,-0.33,-0.09,9.4,0,0,0
1876,-0.002181662,-0.006544985,0.076358155,-0.28,-0.17,9.39,0,0,0
1877,-0.002181662,-0.007635815,0.061086524,-0.34,-0.23,9.41,0,0,0
1878,-0.005454154,-0.002181662,0.05563237,-0.35,-0.28,9.39,0,0,0
1879,-0.007635815,0,0.054541539,-0.36,-0.45,9.44,0,0,0
1880,-0.011999139,0,0.034906585,-0.33,-0.09,9.4,0,0,0
