Packet number,Gyroscope X (deg/s),Gyroscope Y (deg/s),Gyroscope Z (deg/s),Accelerometer X (g),Accelerometer Y (g),Accelerometer Z (g),Magnetometer X (microteslas),Magnetometer Y (microteslas),Magnetometer Z (microteslas),Timestamp
0,0.0,0.0,-0.001090830782496456,0.02,0.01,9.790000000000001,17.5,10.5625,-52.6875,1744474916.665163
1,0.001090830782496456,-0.002181661564992912,-0.001090830782496456,0.01,0.03,9.81,17.5,10.5625,-52.6875,1744474916.6861262
2,0.0,0.0,-0.002181661564992912,0.02,0.01,9.8,17.875,10.1875,-52.0,1744474916.7050207
3,0.001090830782496456,-0.001090830782496456,0.0,0.03,0.02,9.77,17.875,10.1875,-52.0,1744474916.728506
4,0.0,-0.001090830782496456,-0.001090830782496456,0.02,0.01,9.81,17.0625,10.875,-52.375,1744474916.7453954
5,0.003272492347489368,0.0,-0.001090830782496456,0.02,0.02,9.8,17.0625,10.875,-52.375,1744474916.767753
6,0.002181661564992912,0.001090830782496456,0.0,0.01,0.03,9.75,17.0625,10.875,-52.375,1744474916.7871237
7,0.0,0.001090830782496456,-0.002181661564992912,0.01,0.0,9.81,16.375,10.5625,-52.0,1744474916.8053515
8,0.001090830782496456,-0.002181661564992912,0.0,0.0,0.01,9.81,16.375,10.5625,-52.0,1744474916.8291447
9,0.0,0.002181661564992912,-0.002181661564992912,0.02,0.04,9.8,17.5,10.1875,-52.0,1744474916.8459167
10,0.001090830782496456,0.0,0.0,0.02,0.03,9.77,17.5,10.1875,-52.0,1744474916.869643
11,0.001090830782496456,-0.002181661564992912,0.0,0.03,0.0,9.81,17.5,10.1875,-52.0,1744474916.888906
12,0.002181661564992912,-0.001090830782496456,-0.001090830782496456,0.0,0.02,9.790000000000001,16.75,10.875,-51.1875,1744474916.907801
13,-0.002181661564992912,-0.003272492347489368,0.001090830782496456,0.02,0.03,9.81,16.75,10.875,-51.1875,1744474916.9306977
14,0.002181661564992912,-0.001090830782496456,-0.002181661564992912,0.0,0.04,9.82,17.0625,10.5625,-51.1875,1744474916.9485664
15,0.0,-0.003272492347489368,0.002181661564992912,0.01,0.02,9.81,17.0625,10.5625,-51.1875,1744474916.9707067
16,-0.002181661564992912,-0.003272492347489368,0.0,0.01,0.01,9.8,17.0625,10.5625,-51.1875,1744474916.9883661
17,0.002181661564992912,0.003272492347489368,-0.002181661564992912,0.01,0.02,9.8,16.375,10.5625,-51.5,1744474917.0093417
18,-0.001090830782496456,0.002181661564992912,-0.002181661564992912,0.01,0.04,9.78,16.375,10.5625,-51.5,1744474917.0310903
19,0.0,-0.001090830782496456,-0.001090830782496456,0.02,0.01,9.81,16.375,11.25,-52.6875,1744474917.0506644
20,0.003272492347489368,0.0,-0.002181661564992912,0.02,0.03,9.77,16.375,11.25,-52.6875,1744474917.0704455
21,-0.002181661564992912,0.0,0.001090830782496456,0.02,0.02,9.8,16.375,11.25,-52.6875,1744474917.0888665
22,0.002181661564992912,0.001090830782496456,-0.002181661564992912,0.02,0.03,9.790000000000001,16.0625,10.875,-52.0,1744474917.110372
23,0.001090830782496456,0.001090830782496456,0.001090830782496456,0.03,0.04,9.8,16.0625,10.875,-52.0,1744474917.132015
24,0.003272492347489368,-0.001090830782496456,0.0,0.02,0.03,9.81,17.0625,10.5625,-52.375,1744474917.1516764
25,0.0,0.001090830782496456,0.001090830782496456,0.01,0.0,9.790000000000001,17.0625,10.5625,-52.375,1744474917.1714237
26,0.001090830782496456,0.001090830782496456,0.0,0.01,0.01,9.8,17.0625,10.5625,-52.375,1744474917.1888118
27,-0.001090830782496456,0.0,0.0,0.02,0.01,9.81,16.75,10.5625,-52.375,1744474917.2116292
28,0.001090830782496456,0.0,-0.003272492347489368,0.03,0.02,9.790000000000001,16.75,10.5625,-52.375,1744474917.2319922
29,0.002181661564992912,0.002181661564992912,-0.002181661564992912,0.01,0.01,9.83,16.0625,10.1875,-52.375,1744474917.253015
30,0.001090830782496456,0.0,0.001090830782496456,0.01,0.02,9.81,16.0625,10.1875,-52.375,1744474917.2731621
31,0.003272492347489368,-0.004363323129985824,0.0,0.0,0.0,9.78,16.375,10.1875,-52.375,1744474917.293157
32,-0.001090830782496456,0.003272492347489368,-0.002181661564992912,0.03,0.04,9.78,16.375,10.1875,-52.375,1744474917.314091
33,0.0,-0.001090830782496456,0.002181661564992912,0.02,0.02,9.81,16.375,10.1875,-52.375,1744474917.341416
34,-0.002181661564992912,0.004363323129985824,0.001090830782496456,0.03,0.02,9.8,16.75,10.5625,-51.5,1744474917.3537486
35,0.001090830782496456,0.002181661564992912,0.002181661564992912,0.01,0.02,9.790000000000001,16.75,10.5625,-51.5,1744474917.375688
36,-0.001090830782496456,0.0,0.002181661564992912,0.02,0.02,9.83,16.75,10.875,-53.1875,1744474917.3948123
37,-0.003272492347489368,0.002181661564992912,0.002181661564992912,0.0,0.03,9.8,16.75,10.875,-53.1875,1744474917.4176903
38,0.0,0.001090830782496456,0.001090830782496456,0.02,0.03,9.82,16.75,10.875,-53.1875,1744474917.4361808
39,0.0,-0.001090830782496456,0.001090830782496456,0.03,0.01,9.81,16.375,10.5625,-52.375,1744474917.4556193
40,-0.001090830782496456,0.0,0.001090830782496456,0.02,0.03,9.81,16.375,10.5625,-52.375,1744474917.475162
41,0.0,0.0,0.0,0.04,0.04,9.790000000000001,18.25,11.25,-52.0,1744474917.4966776
42,-0.002181661564992912,0.001090830782496456,0.001090830782496456,0.01,0.0,9.8,18.25,11.25,-52.0,1744474917.515307
43,-0.001090830782496456,-0.001090830782496456,0.0,0.03,0.01,9.790000000000001,18.25,11.25,-52.0,1744474917.5365736
44,0.0,0.001090830782496456,0.001090830782496456,0.02,0.02,9.790000000000001,16.75,10.1875,-51.1875,1744474917.5600102
45,-0.001090830782496456,0.001090830782496456,0.002181661564992912,0.01,0.01,9.790000000000001,16.75,10.1875,-51.1875,1744474917.5768163
46,0.0,-0.001090830782496456,-0.001090830782496456,0.0,0.02,9.81,16.0625,9.5,-52.375,1744474917.5969768
47,-0.002181661564992912,-0.001090830782496456,0.0,0.0,0.01,9.8,16.0625,9.5,-52.375,1744474917.6210918
48,-0.001090830782496456,0.0,0.0,0.02,0.03,9.790000000000001,16.0625,9.5,-52.375,1744474917.6360102
49,-0.001090830782496456,0.002181661564992912,0.001090830782496456,0.03,0.03,9.8,16.75,10.875,-52.6875,1744474917.6587534
50,-0.002181661564992912,0.002181661564992912,0.0,0.02,0.0,9.78,16.75,10.875,-52.6875,1744474917.6785944
51,-0.001090830782496456,0.001090830782496456,-0.001090830782496456,0.02,0.04,9.78,16.75,10.1875,-52.375,1744474917.699921
52,-0.001090830782496456,0.0,-0.001090830782496456,0.02,0.01,9.78,16.75,10.1875,-52.375,1744474917.7184238
53,-0.001090830782496456,-0.002181661564992912,0.002181661564992912,0.01,0.01,9.78,16.75,10.1875,-52.375,1744474917.7370512
54,0.0,0.0,-0.002181661564992912,0.02,0.03,9.82,16.375,10.875,-52.375,1744474917.7611504
55,-0.001090830782496456,-0.001090830782496456,0.002181661564992912,0.02,0.0,9.78,16.375,10.875,-52.375,1744474917.7825801
56,0.0,-0.001090830782496456,0.001090830782496456,0.03,0.03,9.81,16.0625,10.1875,-52.375,1744474917.8009605
57,0.0,0.0,0.003272492347489368,0.02,0.04,9.78,16.0625,10.1875,-52.375,1744474917.8205454
58,0.001090830782496456,0.001090830782496456,0.0,0.01,0.02,9.82,16.0625,10.1875,-52.375,1744474917.838549
59,0.001090830782496456,0.002181661564992912,0.0,0.05,0.03,9.8,16.375,10.875,-51.5625,1744474917.8623838
60,0.0,0.001090830782496456,0.0,0.02,0.04,9.790000000000001,16.375,10.875,-51.5625,1744474917.8822324
61,0.0,0.001090830782496456,0.001090830782496456,0.01,0.03,9.790000000000001,16.75,10.875,-52.0,1744474917.9024465
62,0.002181661564992912,0.0,0.0,0.0,0.01,9.78,16.75,10.875,-52.0,1744474917.9225314
63,0.001090830782496456,0.0,-0.001090830782496456,0.02,0.03,9.8,16.75,10.875,-52.0,1744474917.9406545
64,0.0,0.0,-0.001090830782496456,0.01,0.0,9.8,17.0625,10.1875,-53.1875,1744474917.9632018
65,0.001090830782496456,0.001090830782496456,0.0,0.02,0.02,9.78,17.0625,10.1875,-53.1875,1744474917.9823425
66,0.003272492347489368,-0.002181661564992912,-0.001090830782496456,0.01,0.02,9.81,17.0625,10.1875,-52.375,1744474918.002186
67,0.0,0.0,0.002181661564992912,0.02,0.0,9.82,17.0625,10.1875,-52.375,1744474918.0232377
68,0.001090830782496456,-0.003272492347489368,0.0,0.02,0.01,9.8,17.0625,10.1875,-51.1875,1744474918.0410335
69,0.0,0.0,0.001090830782496456,0.03,0.01,9.82,17.0625,10.1875,-51.1875,1744474918.0627036
70,-0.001090830782496456,-0.001090830782496456,0.0,0.02,0.03,9.78,17.0625,10.1875,-51.1875,1744474918.0833972
71,0.001090830782496456,0.002181661564992912,0.0,0.01,0.01,9.8,16.75,10.5625,-52.0,1744474918.102397
72,0.002181661564992912,-0.001090830782496456,0.001090830782496456,0.01,0.01,9.8,16.75,10.5625,-52.0,1744474918.122517
73,-0.001090830782496456,0.002181661564992912,0.002181661564992912,0.03,0.02,9.790000000000001,16.375,9.875,-53.5,1744474918.1442971
74,0.001090830782496456,0.0,0.0,0.0,0.02,9.790000000000001,16.375,9.875,-53.5,1744474918.162357
75,0.0,-0.001090830782496456,0.001090830782496456,0.0,0.03,9.8,16.375,9.875,-53.5,1744474918.1840072
76,0.001090830782496456,-0.001090830782496456,-0.001090830782496456,0.03,0.02,9.81,17.5,11.25,-51.5625,1744474918.202416
77,0.001090830782496456,0.002181661564992912,0.0,0.0,0.0,9.790000000000001,17.5,11.25,-51.5625,1744474918.2226
78,0.002181661564992912,0.0,0.002181661564992912,0.0,0.02,9.790000000000001,17.5,10.875,-52.0,1744474918.2427564
79,-0.001090830782496456,0.0,0.002181661564992912,0.02,0.0,9.8,17.5,10.875,-52.0,1744474918.2651684
80,-0.001090830782496456,0.002181661564992912,0.0,0.01,0.01,9.81,17.5,10.875,-52.0,1744474918.2831395
81,0.002181661564992912,0.001090830782496456,0.001090830782496456,0.02,0.03,9.8,15.25,10.875,-51.1875,1744474918.3070242
82,0.0,-0.001090830782496456,0.001090830782496456,0.0,0.02,9.81,15.25,10.875,-51.1875,1744474918.3227026
83,-0.002181661564992912,-0.001090830782496456,0.001090830782496456,0.0,0.01,9.82,17.0625,9.875,-52.0,1744474918.3435516
84,0.0,0.001090830782496456,0.001090830782496456,0.02,0.01,9.77,17.0625,9.875,-52.0,1744474918.3659222
85,0.001090830782496456,0.001090830782496456,0.0,0.01,0.04,9.83,17.0625,9.875,-52.0,1744474918.3831673
86,-0.001090830782496456,-0.002181661564992912,0.0,0.02,0.03,9.82,17.5,11.25,-52.0,1744474918.4036763
87,-0.001090830782496456,0.002181661564992912,0.001090830782496456,0.01,0.01,9.81,17.5,11.25,-52.0,1744474918.4239979
88,0.0,0.001090830782496456,0.0,0.01,0.02,9.82,17.875,10.1875,-51.5625,1744474918.442924
89,-0.001090830782496456,-0.002181661564992912,-0.003272492347489368,0.03,0.03,9.77,17.875,10.1875,-51.5625,1744474918.4677773
90,-0.003272492347489368,0.0,0.001090830782496456,0.0,0.02,9.81,17.875,10.1875,-51.5625,1744474918.4868062
91,-0.002181661564992912,0.001090830782496456,-0.001090830782496456,0.02,0.05,9.81,16.375,10.1875,-52.6875,1744474918.508273
92,-0.003272492347489368,0.0,-0.002181661564992912,0.01,0.03,9.8,16.375,10.1875,-52.6875,1744474918.5299973
93,0.0,0.001090830782496456,-0.001090830782496456,0.02,0.01,9.8,16.375,11.25,-51.5625,1744474918.5507038
94,0.0,0.0,-0.001090830782496456,0.02,0.01,9.78,16.375,11.25,-51.5625,1744474918.5689454
95,0.0,0.0,-0.002181661564992912,0.02,0.01,9.790000000000001,16.375,11.25,-51.5625,1744474918.5873687
96,-0.003272492347489368,-0.001090830782496456,-0.001090830782496456,0.0,0.02,9.790000000000001,17.5,10.5625,-52.0,1744474918.6112952
97,-0.002181661564992912,0.0,0.0,0.03,0.04,9.78,17.5,10.5625,-52.0,1744474918.6298654
98,0.0,-0.001090830782496456,0.001090830782496456,0.01,0.02,9.82,16.0625,10.875,-52.0,1744474918.6509736
99,0.0,-0.002181661564992912,0.0,0.03,0.01,9.78,16.0625,10.875,-52.0,1744474918.6718626
100,-0.001090830782496456,-0.001090830782496456,-0.001090830782496456,0.02,0.01,9.81,16.0625,10.875,-52.0,1744474918.6885037
101,0.0,-0.002181661564992912,-0.002181661564992912,0.01,0.03,9.82,16.75,10.875,-52.6875,1744474918.710871
102,-0.001090830782496456,-0.001090830782496456,0.0,0.01,0.02,9.8,16.75,10.875,-52.6875,1744474918.7318687
103,-0.002181661564992912,-0.002181661564992912,-0.001090830782496456,0.04,0.01,9.82,16.375,10.5625,-52.0,1744474918.7509155
104,-0.003272492347489368,0.00545415391248228,-0.001090830782496456,0.02,0.02,9.81,16.375,10.5625,-52.0,1744474918.7714708
105,-0.00545415391248228,0.003272492347489368,-0.001090830782496456,0.01,0.02,9.83,16.75,10.875,-51.1875,1744474918.7916305
106,-0.002181661564992912,0.004363323129985824,0.0,0.0,0.01,9.81,16.75,10.875,-51.1875,1744474918.8109772
107,-0.004363323129985824,0.016362461737446838,-0.050178215994836975,-0.03,-0.03,9.78,16.75,10.875,-51.1875,1744474918.8317225
108,-0.003272492347489368,0.009817477042468103,-0.4036073895236887,-0.09,-0.02,9.82,16.75,11.25,-52.375,1744474918.8489358
109,0.001090830782496456,0.002181661564992912,-0.7014041931452212,-0.08,0.04,9.86,16.75,11.25,-52.375,1744474918.8719292
110,0.001090830782496456,-0.028361600344907856,-0.7134033317526822,0.14,0.0,9.76,16.75,11.25,-52.375,1744474918.889785
111,0.007635815477475192,-0.017453292519943295,-0.38942658935123475,0.14,0.12,9.77,16.375,10.5625,-52.0,1744474918.912053
112,-0.002181661564992912,0.008726646259971648,0.004363323129985824,0.03,0.02,9.81,16.375,10.5625,-52.0,1744474918.9319553
113,0.001090830782496456,-0.002181661564992912,0.004363323129985824,0.02,0.03,9.8,15.6875,11.25,-51.5625,1744474918.952681
114,0.004363323129985824,-0.00545415391248228,0.002181661564992912,0.01,0.02,9.790000000000001,15.6875,11.25,-51.5625,1744474918.9733045
115,0.003272492347489368,-0.008726646259971648,0.00545415391248228,0.01,0.04,9.8,16.0625,11.6875,-50.75,1744474918.9912965
116,0.0,-0.004363323129985824,0.003272492347489368,0.02,0.02,9.78,16.0625,11.6875,-50.75,1744474919.0127718
117,0.003272492347489368,0.002181661564992912,0.003272492347489368,-0.01,0.03,9.83,16.0625,11.6875,-50.75,1744474919.0327709
118,-0.002181661564992912,-0.00545415391248228,0.026179938779914945,-0.11,0.12,9.8,16.0625,11.6875,-51.1875,1744474919.0528913
119,-0.001090830782496456,-0.016362461737446838,0.18762289458939044,0.08,0.01,9.77,16.0625,11.6875,-51.1875,1744474919.0730689
120,0.002181661564992912,-0.004363323129985824,0.1439896632895322,0.04,0.04,9.83,16.0625,11.25,-53.1875,1744474919.0920868
121,0.002181661564992912,0.0,0.004363323129985824,0.01,0.02,9.81,16.0625,11.25,-53.1875,1744474919.113796
122,0.00545415391248228,0.003272492347489368,0.0,0.01,0.0,9.81,16.0625,11.25,-53.1875,1744474919.1343
123,0.0,0.039269908169872414,-0.039269908169872414,0.04,0.06,9.790000000000001,16.0625,12.375,-52.0,1744474919.1535997
124,0.002181661564992912,0.061086523819801536,0.04363323129985824,0.14,0.04,9.8,16.0625,12.375,-52.0,1744474919.1735513
125,-0.013089969389957472,0.2083486794568231,-0.044724062082354694,0.04,0.02,9.85,15.6875,11.6875,-51.5625,1744474919.1970887
126,-0.01090830782496456,0.11780972450961724,-0.00545415391248228,-0.19,0.01,9.75,15.6875,11.6875,-51.5625,1744474919.2136955
127,-0.01090830782496456,0.026179938779914945,0.022907446432425576,-0.09,0.02,9.790000000000001,15.6875,11.6875,-51.5625,1744474919.2344348
128,-0.004363323129985824,0.00545415391248228,0.09053895494720585,-0.13,0.02,9.83,16.375,12.0,-52.0,1744474919.2567184
129,-0.002181661564992912,0.0,0.36106498900632694,-0.01,0.05,9.82,16.375,12.0,-52.0,1744474919.274209
130,-0.006544984694978736,-0.004363323129985824,0.459239759431008,0.14,-0.16,9.81,16.0625,11.6875,-51.5625,1744474919.2942488
131,0.001090830782496456,0.003272492347489368,0.0818123086872342,-0.05,0.0,9.790000000000001,16.0625,11.6875,-51.5625,1744474919.3143532
132,0.0,-0.006544984694978736,0.04036073895236887,-0.06,0.0,9.82,16.0625,11.6875,-51.5625,1744474919.3355806
133,0.0,-0.013089969389957472,0.05999569303730508,-0.06,0.01,9.84,17.0625,11.6875,-51.1875,1744474919.3545227
134,0.002181661564992912,-0.017453292519943295,0.19198621771937624,-0.05,0.06,9.77,17.0625,11.6875,-51.1875,1744474919.379692
135,0.004363323129985824,-0.014180800172453928,0.24980024919168842,-0.07,-0.03,9.83,16.75,11.25,-51.5625,1744474919.394551
136,0.002181661564992912,-0.003272492347489368,0.061086523819801536,-0.02,0.0,9.8,16.75,11.25,-51.5625,1744474919.4193656
137,0.0,0.006544984694978736,-0.011999138607461015,0.31,0.02,9.8,17.0625,10.875,-51.1875,1744474919.4400725
138,0.002181661564992912,0.003272492347489368,-0.06654067773228381,0.12,-0.04,9.82,17.0625,10.875,-51.1875,1744474919.4583635
139,0.004363323129985824,0.0,-0.1505346479845109,-0.02,0.0,9.78,17.0625,10.875,-51.1875,1744474919.480095
140,0.002181661564992912,-0.001090830782496456,-0.1407171709420428,0.01,-0.01,9.790000000000001,16.75,10.5625,-51.1875,1744474919.4966817
141,0.003272492347489368,-0.002181661564992912,-0.015271630954950384,0.21,0.1,9.8,16.75,10.5625,-51.1875,1744474919.520345
142,0.002181661564992912,-0.006544984694978736,0.061086523819801536,0.24,-0.15,9.82,16.75,10.5625,-51.1875,1744474919.5377543
143,0.004363323129985824,-0.001090830782496456,-0.19634954084936207,0.4,-0.06,9.790000000000001,17.0625,11.6875,-51.5625,1744474919.560911
144,-0.003272492347489368,-0.015271630954950384,-0.05890486225480862,-0.17,0.04,9.81,17.0625,11.6875,-51.5625,1744474919.5810692
145,-0.002181661564992912,-0.01090830782496456,-0.13962634015954636,0.03,-0.03,9.83,16.75,10.5625,-51.1875,1744474919.6020026
146,0.0,-0.009817477042468103,-0.1559888018969932,0.01,0.06,9.8,16.75,10.5625,-51.1875,1744474919.622001
147,0.0,-0.028361600344907856,-0.08617563181722002,0.31,-0.36,9.83,16.375,9.875,-50.0,1744474919.6417756
148,-0.001090830782496456,0.003272492347489368,-0.18435040224190105,-0.04,-0.18,9.77,16.375,9.875,-50.0,1744474919.661978
149,-0.002181661564992912,-0.022907446432425576,-0.09490227807719166,-0.08,0.27,9.790000000000001,16.375,9.875,-50.0,1744474919.682371
150,0.011999138607461015,-0.0719948316447661,0.07635815477475191,0.14,0.22,9.8,17.0625,10.875,-50.0,1744474919.7027235
151,0.009817477042468103,-0.05235987755982989,0.11780972450961724,-0.02,-0.01,9.8,17.0625,10.875,-50.0,1744474919.72679
152,0.004363323129985824,-0.025089107997418487,0.07635815477475191,-0.3,-0.54,9.83,16.0625,10.1875,-49.1875,1744474919.7419975
153,0.001090830782496456,0.04908738521234052,-0.2923426497090502,0.0,0.04,9.82,16.0625,10.1875,-49.1875,1744474919.762271
154,0.004363323129985824,0.0,-0.20725784867432664,-0.14,0.15,9.790000000000001,16.0625,10.1875,-49.1875,1744474919.78589
155,-0.002181661564992912,0.04254240051736178,-0.15162547876700738,-0.02,0.33,9.83,17.5,9.875,-48.0,1744474919.802332
156,-0.006544984694978736,0.09708393964218458,-0.26616271092913524,0.16,-0.05,9.84,17.5,9.875,-48.0,1744474919.8227544
157,0.003272492347489368,0.050178215994836975,-0.17998707911191522,-0.01,0.05,9.82,17.875,9.875,-48.0,1744474919.8444428
158,0.004363323129985824,0.017453292519943295,-0.18653206380689397,-0.14,-0.12,9.790000000000001,17.875,9.875,-48.0,1744474919.8625054
159,-0.001090830782496456,-0.003272492347489368,-0.0916297857297023,0.11,0.07,9.83,17.875,9.875,-48.0,1744474919.8840387
160,-0.006544984694978736,-0.001090830782496456,-0.0916297857297023,0.21,0.45,9.8,17.5,8.5625,-47.25,1744474919.9082928
161,-0.019634954084936207,-0.04036073895236887,0.1308996938995747,0.25,0.06,9.790000000000001,17.5,8.5625,-47.25,1744474919.9228
162,-0.003272492347489368,-0.04799655442984406,0.13308135546456762,0.02,-0.73,9.83,17.0625,8.25,-46.875,1744474919.9432318
163,0.019634954084936207,-0.00545415391248228,-0.2203478180642841,-0.06,0.09,9.81,17.0625,8.25,-46.875,1744474919.966146
164,-0.00545415391248228,-0.001090830782496456,-0.20507618710933373,-0.28,-0.17,9.8,17.0625,8.25,-46.875,1744474919.9834013
165,-0.003272492347489368,-0.003272492347489368,-0.15162547876700738,-0.42,-0.39,9.81,17.875,8.5625,-47.6875,1744474920.0073946
166,0.017453292519943295,0.10253809355466686,-0.3741549583962844,-0.22,0.21,9.81,17.875,8.5625,-47.6875,1744474920.0254118
167,0.0,0.039269908169872414,-0.20725784867432664,-0.1,0.11,9.8,17.875,8.0,-46.0625,1744474920.0435472
168,-0.02945243112740431,-0.014180800172453928,0.015271630954950384,-0.24,-0.2,9.77,17.875,8.0,-46.0625,1744474920.0670419
169,-0.001090830782496456,-0.00545415391248228,-0.038179077387375956,-0.24,-0.05,9.84,17.875,8.0,-46.0625,1744474920.08403
170,-0.007635815477475192,-0.016362461737446838,0.0272707695624114,-0.19,-0.15,9.790000000000001,18.25,8.6875,-46.0625,1744474920.107229
171,-0.006544984694978736,-0.025089107997418487,0.08290313946973066,-0.21,-0.18,9.8,18.25,8.6875,-46.0625,1744474920.1289704
172,0.02399827721492203,0.003272492347489368,-0.05126904677733343,-0.33,-0.21,9.81,17.875,8.375,-46.875,1744474920.1450684
173,0.020725784867432664,0.001090830782496456,-0.14726215563702155,-0.17,0.0,9.78,17.875,8.375,-46.875,1744474920.1687355
174,0.017453292519943295,0.013089969389957472,-0.20289452554434081,-0.04,0.1,9.8,18.5625,7.25,-46.5,1744474920.190198
175,0.004363323129985824,0.0,-0.10690141668465268,-0.23,0.06,9.83,18.5625,7.25,-46.5,1744474920.2079625
176,0.001090830782496456,-0.001090830782496456,-0.10144726277217041,-0.23,-0.17,9.82,18.5625,7.25,-46.5,1744474920.228956
177,-0.003272492347489368,0.002181661564992912,-0.08944812416470939,-0.03,-0.02,9.84,19.25,8.0625,-46.5,1744474920.2481492
178,-0.01090830782496456,0.003272492347489368,-0.044724062082354694,0.1,0.01,9.81,19.25,8.0625,-46.5,1744474920.2688408
179,0.004363323129985824,-0.00545415391248228,-0.002181661564992912,0.12,-0.03,9.790000000000001,19.25,8.0625,-46.5,1744474920.286894
180,0.001090830782496456,0.0,-0.0916297857297023,-0.03,0.0,9.82,18.25,8.0625,-45.6875,1744474920.3085492
181,0.01090830782496456,-0.014180800172453928,-0.05781403147231216,-0.2,-0.07,9.8,18.25,8.0625,-45.6875,1744474920.3290744
182,0.00545415391248228,-0.015271630954950384,0.003272492347489368,-0.1,0.0,9.83,18.25,7.25,-46.875,1744474920.3493075
183,0.001090830782496456,-0.00545415391248228,-0.032724923474893676,-0.16,-0.09,9.81,18.25,7.25,-46.875,1744474920.3696811
184,-0.003272492347489368,-0.002181661564992912,-0.11344640137963143,-0.2,-0.1,9.78,18.25,7.25,-46.875,1744474920.3879077
185,0.004363323129985824,-0.01090830782496456,-0.05672320068981571,-0.33,-0.01,9.83,19.6875,6.875,-45.6875,1744474920.4094555
186,-0.001090830782496456,-0.001090830782496456,-0.08944812416470939,-0.19,-0.08,9.8,19.6875,6.875,-45.6875,1744474920.4296358
187,0.004363323129985824,-0.003272492347489368,-0.10253809355466686,0.05,0.0,9.84,18.875,6.875,-46.5,1744474920.4465854
188,0.0,-0.003272492347489368,-0.1189005552921137,-0.02,-0.12,9.8,18.875,6.875,-46.5,1744474920.4693637
189,0.002181661564992912,0.004363323129985824,-0.11235557059713497,-0.24,-0.08,9.81,18.875,6.875,-46.5,1744474920.4868178
190,0.0,-0.003272492347489368,-0.13962634015954636,-0.31,0.14,9.81,18.875,7.25,-47.25,1744474920.5093248
191,-0.004363323129985824,0.002181661564992912,-0.050178215994836975,-0.16,0.0,9.84,18.875,7.25,-47.25,1744474920.529702
192,0.003272492347489368,-0.003272492347489368,-0.002181661564992912,-0.06,-0.04,9.790000000000001,19.6875,5.875,-46.5,1744474920.549497
193,0.0,-0.003272492347489368,0.04145156973486533,-0.17,-0.05,9.82,19.6875,5.875,-46.5,1744474920.5701747
194,0.002181661564992912,-0.001090830782496456,0.011999138607461015,-0.17,-0.05,9.8,20.0625,6.875,-46.875,1744474920.5896018
195,0.0,-0.00545415391248228,-0.025089107997418487,-0.13,0.0,9.81,20.0625,6.875,-46.875,1744474920.6098583
196,0.001090830782496456,-0.002181661564992912,-0.03490658503988659,-0.09,0.0,9.8,20.0625,6.875,-46.875,1744474920.6301022
197,0.0,0.0,-0.044724062082354694,-0.07,-0.01,9.81,20.375,6.1875,-46.5,1744474920.6496377
198,0.0,0.003272492347489368,-0.0545415391248228,-0.06,-0.03,9.82,20.375,6.1875,-46.5,1744474920.6711302
199,0.0,-0.004363323129985824,-0.04254240051736178,-0.09,-0.03,9.83,19.25,6.5625,-46.5,1744474920.688889
200,0.002181661564992912,-0.00545415391248228,-0.014180800172453928,-0.04,-0.01,9.8,19.25,6.5625,-46.5,1744474920.714011
201,0.003272492347489368,-0.003272492347489368,-0.002181661564992912,-0.06,0.0,9.83,19.25,6.5625,-46.5,1744474920.73042
202,0.004363323129985824,-0.003272492347489368,0.001090830782496456,-0.05,0.0,9.84,18.875,6.5625,-45.6875,1744474920.750709
203,0.001090830782496456,-0.002181661564992912,0.001090830782496456,-0.02,-0.01,9.8,18.875,6.5625,-45.6875,1744474920.7718093
204,-0.001090830782496456,0.001090830782496456,0.002181661564992912,-0.02,0.0,9.83,19.6875,6.5625,-46.5,1744474920.7903693
205,0.001090830782496456,0.002181661564992912,-0.004363323129985824,-0.03,-0.03,9.790000000000001,19.6875,6.5625,-46.5,1744474920.8114629
206,0.002181661564992912,-0.001090830782496456,-0.016362461737446838,-0.07,-0.01,9.84,19.6875,6.5625,-46.5,1744474920.8324924
207,0.002181661564992912,-0.003272492347489368,-0.12326387842209953,-0.03,0.0,9.8,19.6875,6.5625,-46.5,1744474920.8506453
208,0.002181661564992912,-0.00545415391248228,-0.008726646259971648,-0.02,0.0,9.81,19.6875,6.5625,-46.5,1744474920.8705528
209,0.002181661564992912,-0.004363323129985824,-0.002181661564992912,-0.03,-0.01,9.83,19.25,6.5625,-46.0625,1744474920.8917286
210,0.004363323129985824,-0.01090830782496456,-0.002181661564992912,-0.06,0.02,9.82,19.25,6.5625,-46.0625,1744474920.9113495
211,0.008726646259971648,-0.014180800172453928,-0.01090830782496456,-0.35000000000000003,-0.08,9.83,19.25,6.5625,-46.0625,1744474920.9307272
212,0.003272492347489368,0.001090830782496456,-0.015271630954950384,-0.26,-0.08,9.82,19.6875,6.5625,-46.0625,1744474920.950787
213,0.0,0.006544984694978736,-0.022907446432425576,-0.3,-0.03,9.8,19.6875,6.5625,-46.0625,1744474920.9708316
214,-0.003272492347489368,0.001090830782496456,-0.011999138607461015,-0.14,0.0,9.82,20.75,5.5,-46.5,1744474920.9922664
215,-0.002181661564992912,0.003272492347489368,0.14289883250703572,-0.29,0.02,9.8,20.75,5.5,-46.5,1744474921.0113358
216,0.001090830782496456,0.002181661564992912,0.17889624832941878,0.0,0.01,9.83,20.75,5.5,-46.5,1744474921.031193
217,0.00545415391248228,0.002181661564992912,0.18653206380689397,-0.04,-0.22,9.84,18.875,7.25,-47.25,1744474921.0539477
218,0.0,0.0,0.08617563181722002,-0.01,-0.08,9.83,18.875,7.25,-47.25,1744474921.0712793
219,0.0,0.001090830782496456,0.08508480103472356,-0.23,-0.17,9.81,18.875,6.875,-46.0625,1744474921.0915549
220,0.003272492347489368,-0.008726646259971648,-0.006544984694978736,0.12,0.08,9.790000000000001,18.875,6.875,-46.0625,1744474921.1140285
221,-0.00545415391248228,0.001090830782496456,-0.05345070834232634,0.02,0.05,9.81,18.875,6.875,-46.0625,1744474921.1319427
222,0.003272492347489368,-0.009817477042468103,0.03490658503988659,-0.34,-0.08,9.82,18.875,6.875,-46.0625,1744474921.1534898
223,0.0,0.007635815477475192,-0.008726646259971648,-0.11,0.0,9.83,18.875,6.875,-46.0625,1744474921.1762426
224,-0.00545415391248228,0.019634954084936207,-0.030543261909900768,-0.25,-0.03,9.77,18.875,6.875,-46.0625,1744474921.1923938
225,0.0,0.004363323129985824,0.026179938779914945,-0.05,0.06,9.8,18.875,6.875,-46.0625,1744474921.2134101
226,-0.004363323129985824,0.00545415391248228,0.0,-0.08,-0.02,9.83,18.875,6.875,-46.0625,1744474921.233925
227,0.007635815477475192,-0.002181661564992912,-0.02945243112740431,-0.05,-0.08,9.84,18.5625,6.875,-45.6875,1744474921.2532508
228,0.00545415391248228,0.00545415391248228,-0.05999569303730508,-0.12,-0.02,9.8,18.5625,6.875,-45.6875,1744474921.2742875
229,0.015271630954950384,-0.002181661564992912,-0.07963064712224129,-0.18,0.09,9.8,18.5625,6.875,-46.5,1744474921.2959707
230,0.003272492347489368,0.002181661564992912,-0.001090830782496456,-0.24,0.06,9.81,18.5625,6.875,-46.5,1744474921.3173316
231,0.002181661564992912,0.006544984694978736,0.028361600344907856,-0.08,0.1,9.81,18.5625,6.875,-46.5,1744474921.3334713
232,0.001090830782496456,0.013089969389957472,0.037088246604879506,-0.02,-0.02,9.82,19.25,8.0625,-46.0625,1744474921.3559532
233,0.001090830782496456,0.00545415391248228,0.015271630954950384,0.24,0.14,9.82,19.25,8.0625,-46.0625,1744474921.3771834
234,-0.002181661564992912,-0.001090830782496456,0.05345070834232634,-0.07,0.04,9.81,18.875,8.375,-46.0625,1744474921.3941922
235,-0.003272492347489368,-0.001090830782496456,0.07417649320975901,-0.06,-0.02,9.8,18.875,8.375,-46.0625,1744474921.4180403
236,0.011999138607461015,-0.014180800172453928,0.04036073895236887,-0.15,-0.07,9.8,18.875,8.375,-46.0625,1744474921.4340782
237,0.003272492347489368,-0.006544984694978736,0.025089107997418487,-0.4,0.0,9.81,18.25,8.6875,-46.0625,1744474921.4565494
238,0.001090830782496456,0.004363323129985824,-0.00545415391248228,0.1,0.15,9.81,18.25,8.6875,-46.0625,1744474921.4779246
239,-0.008726646259971648,0.008726646259971648,-0.025089107997418487,0.3,0.12,9.78,17.875,8.375,-46.875,1744474921.4949768
240,0.008726646259971648,-0.013089969389957472,-0.026179938779914945,0.1,-0.02,9.790000000000001,17.875,8.375,-46.875,1744474921.5192351
241,0.004363323129985824,-0.006544984694978736,-0.07635815477475191,0.01,-0.03,9.84,17.5,8.6875,-46.0625,1744474921.5381768
242,-0.003272492347489368,0.006544984694978736,-0.01090830782496456,-0.37,-0.07,9.82,17.5,8.6875,-46.0625,1744474921.5594018
243,-0.003272492347489368,0.016362461737446838,0.025089107997418487,0.17,-0.01,9.84,17.5,8.6875,-46.0625,1744474921.5793998
244,-0.002181661564992912,0.00545415391248228,-0.004363323129985824,0.24,-0.02,9.84,16.75,9.5,-46.5,1744474921.5996737
245,-0.00545415391248228,0.006544984694978736,0.03490658503988659,-0.05,-0.22,9.790000000000001,16.75,9.5,-46.5,1744474921.620037
246,-0.002181661564992912,-0.008726646259971648,0.0,-0.09,0.11,9.81,17.5,9.5,-46.0625,1744474921.6399956
247,-0.006544984694978736,-0.003272492347489368,0.00545415391248228,-0.24,-0.14,9.83,17.5,9.5,-46.0625,1744474921.659486
248,-0.006544984694978736,-0.019634954084936207,-0.10253809355466686,-0.21,0.06,9.81,17.5,9.5,-46.0625,1744474921.6824
249,-0.016362461737446838,-0.015271630954950384,-0.1265363707695889,-0.15,0.16,9.790000000000001,17.5,10.1875,-46.875,1744474921.7006385
250,-0.006544984694978736,-0.00545415391248228,0.022907446432425576,-0.12,0.06,9.790000000000001,17.5,10.1875,-46.875,1744474921.7195415
251,-0.004363323129985824,-0.007635815477475192,0.03599741582238305,-0.22,0.06,9.790000000000001,16.0625,10.1875,-47.25,1744474921.7390783
252,0.004363323129985824,-0.020725784867432664,0.02181661564992912,-0.16,0.12,9.78,16.0625,10.1875,-47.25,1744474921.7614822
253,0.0,-0.02399827721492203,0.1308996938995747,-0.1,0.21,9.81,16.0625,10.1875,-47.25,1744474921.7798064
254,-0.008726646259971648,-0.025089107997418487,0.18216874067690814,-0.02,-0.06,9.78,16.75,10.1875,-48.0625,1744474921.8008127
255,-0.008726646259971648,-0.014180800172453928,0.13744467859455345,0.04,-0.09,9.81,16.75,10.1875,-48.0625,1744474921.822131
256,-0.001090830782496456,-0.015271630954950384,0.09599310885968812,0.22,-0.05,9.790000000000001,16.375,11.25,-49.6875,1744474921.8397498
257,-0.003272492347489368,0.009817477042468103,0.07417649320975901,0.11,0.23,9.77,16.375,11.25,-49.6875,1744474921.8634923
258,-0.01090830782496456,0.017453292519943295,0.1265363707695889,0.19,-0.13,9.82,16.375,11.25,-49.6875,1744474921.883622
259,-0.003272492347489368,0.002181661564992912,0.11780972450961724,0.49,-0.17,9.78,15.25,11.1875,-49.1875,1744474921.9060094
260,0.0,-0.002181661564992912,0.08072147790473774,0.0,-0.18,9.8,15.25,11.1875,-49.1875,1744474921.9260428
261,0.004363323129985824,-0.00545415391248228,0.05999569303730508,0.01,0.06,9.82,15.6875,10.75,-50.75,1744474921.945721
262,0.003272492347489368,0.001090830782496456,0.007635815477475192,-0.18,0.18,9.81,15.6875,10.75,-50.75,1744474921.96669
263,0.003272492347489368,-0.008726646259971648,0.10253809355466686,-0.19,0.03,9.790000000000001,15.6875,10.75,-50.75,1744474921.983693
264,0.006544984694978736,-0.006544984694978736,0.08617563181722002,-0.2,0.11,9.85,15.0,11.1875,-52.0,1744474922.0061355
265,0.00545415391248228,0.002181661564992912,0.06981317007977318,0.0,0.09,9.83,15.0,11.1875,-52.0,1744474922.0275156
266,0.01090830782496456,0.008726646259971648,0.12544553998709243,0.25,-0.11,9.84,16.0625,11.875,-53.1875,1744474922.0436502
267,0.002181661564992912,0.001090830782496456,0.13308135546456762,0.28,-0.3,9.78,16.0625,11.875,-53.1875,1744474922.0674493
268,0.007635815477475192,-0.004363323129985824,0.06217735460229799,0.17,-0.07,9.8,16.0625,11.875,-53.1875,1744474922.083781
269,0.003272492347489368,-0.00545415391248228,0.06217735460229799,0.06,0.02,9.81,16.0625,11.1875,-55.0625,1744474922.106987
270,-0.006544984694978736,0.003272492347489368,0.00545415391248228,-0.24,0.05,9.83,16.0625,11.1875,-55.0625,1744474922.1281934
271,0.002181661564992912,-0.003272492347489368,-0.08508480103472356,-0.13,0.08,9.83,15.0,11.5625,-56.25,1744474922.1444314
272,-0.008726646259971648,0.006544984694978736,-0.1308996938995747,-0.25,0.19,9.8,15.0,11.5625,-56.25,1744474922.1683123
273,-0.013089969389957472,0.018544123302439753,-0.09599310885968812,0.2,0.08,9.83,14.25,12.25,-54.6875,1744474922.1890776
274,0.004363323129985824,-0.001090830782496456,-0.044724062082354694,-0.1,0.09,9.81,14.25,12.25,-54.6875,1744474922.2087557
275,-0.004363323129985824,0.003272492347489368,-0.00545415391248228,0.37,-0.11,9.790000000000001,14.25,12.25,-54.6875,1744474922.2315645
276,-0.002181661564992912,0.006544984694978736,-0.031634092692397225,0.17,-0.06,9.81,15.25,13.0,-56.6875,1744474922.2497835
277,-0.004363323129985824,0.002181661564992912,0.009817477042468103,0.09,-0.02,9.8,15.25,13.0,-56.6875,1744474922.2694335
278,-0.003272492347489368,0.0,0.05126904677733343,-0.07,0.05,9.83,15.0,12.25,-58.1875,1744474922.2895603
279,0.00545415391248228,-0.003272492347489368,0.07635815477475191,0.19,-0.01,9.76,15.0,12.25,-58.1875,1744474922.3094451
280,0.006544984694978736,-0.00545415391248228,0.03381575425739013,0.0,-0.04,9.81,15.0,12.25,-58.1875,1744474922.3316185
281,0.004363323129985824,0.003272492347489368,-0.015271630954950384,0.21,-0.01,9.83,14.5625,12.5625,-59.0,1744474922.351461
282,0.0,-0.002181661564992912,0.014180800172453928,0.04,0.0,9.83,14.5625,12.5625,-59.0,1744474922.3698359
283,-0.001090830782496456,0.004363323129985824,0.003272492347489368,-0.11,-0.02,9.78,15.0,13.375,-59.375,1744474922.390763
284,0.002181661564992912,0.003272492347489368,-0.025089107997418487,0.15,0.06,9.790000000000001,15.0,13.375,-59.375,1744474922.4155319
285,0.001090830782496456,0.001090830782496456,-0.00545415391248228,0.14,0.1,9.790000000000001,15.0,13.375,-59.375,1744474922.4308622
286,-0.001090830782496456,-0.004363323129985824,0.013089969389957472,0.01,0.03,9.81,13.5,13.375,-60.5625,1744474922.4526775
287,-0.001090830782496456,-0.004363323129985824,0.00545415391248228,0.01,0.04,9.82,13.5,13.375,-60.5625,1744474922.4752927
288,0.002181661564992912,-0.002181661564992912,0.008726646259971648,0.0,0.02,9.81,15.0,13.6875,-60.5625,1744474922.4930313
289,-0.001090830782496456,0.002181661564992912,0.0,-0.04,0.01,9.82,15.0,13.6875,-60.5625,1744474922.5145226
290,-0.001090830782496456,0.003272492347489368,-0.003272492347489368,-0.05,0.0,9.81,15.0,13.6875,-60.5625,1744474922.5323834
291,-0.001090830782496456,0.001090830782496456,-0.004363323129985824,-0.05,0.01,9.8,15.6875,13.0,-60.5625,1744474922.5536957
292,-0.001090830782496456,0.002181661564992912,-0.006544984694978736,-0.03,0.01,9.81,15.6875,13.0,-60.5625,1744474922.5742116
293,-0.002181661564992912,0.003272492347489368,-0.025089107997418487,0.09,0.07,9.83,14.5625,13.375,-59.875,1744474922.592091
294,0.0,0.006544984694978736,-0.1265363707695889,-0.07,0.0,9.81,14.5625,13.375,-59.875,1744474922.613284
295,-0.002181661564992912,0.006544984694978736,-0.14508049407202864,-0.01,0.01,9.81,14.5625,13.375,-59.875,1744474922.6319404
296,0.001090830782496456,0.0,-0.11344640137963143,0.09,0.0,9.82,14.25,13.6875,-59.6875,1744474922.6537735
297,-0.001090830782496456,0.002181661564992912,-0.04908738521234052,0.01,-0.02,9.81,14.25,13.6875,-59.6875,1744474922.6754396
298,0.001090830782496456,-0.003272492347489368,0.02181661564992912,0.09,-0.01,9.82,14.25,14.0625,-59.6875,1744474922.6951303
299,0.0,0.0,0.04799655442984406,0.04,0.05,9.8,14.25,14.0625,-59.6875,1744474922.7151015
300,-0.003272492347489368,0.004363323129985824,0.014180800172453928,0.1,0.01,9.78,14.25,14.0625,-59.6875,1744474922.7322156
301,-0.001090830782496456,-0.002181661564992912,0.020725784867432664,0.16,0.0,9.790000000000001,14.25,13.0,-59.6875,1744474922.7552266
302,-0.002181661564992912,-0.004363323129985824,0.00545415391248228,-0.04,0.01,9.76,14.25,13.0,-59.6875,1744474922.7757018
303,0.001090830782496456,-0.007635815477475192,-0.0272707695624114,-0.01,0.02,9.84,14.25,13.375,-59.6875,1744474922.792413
304,-0.002181661564992912,-0.002181661564992912,-0.06326818538479445,0.34,0.07,9.76,14.25,13.375,-59.6875,1744474922.8161933
305,0.002181661564992912,-0.008726646259971648,-0.026179938779914945,0.3,-0.01,9.82,14.25,13.375,-59.6875,1744474922.8329504
306,0.002181661564992912,-0.01090830782496456,0.04036073895236887,0.17,0.0,9.790000000000001,14.5625,13.375,-58.875,1744474922.8556693
307,0.008726646259971648,-0.011999138607461015,0.05672320068981571,0.5,-0.11,9.8,14.5625,13.375,-58.875,1744474922.8778667
308,0.008726646259971648,-0.014180800172453928,-0.03490658503988659,-0.07,0.01,9.82,14.5625,12.25,-57.75,1744474922.8929484
309,-0.002181661564992912,0.001090830782496456,-0.06326818538479445,0.28,-0.06,9.78,14.5625,12.25,-57.75,1744474922.9163327
310,-0.003272492347489368,-0.01090830782496456,-0.06544984694978735,0.4,-0.14,9.8,14.5625,12.25,-57.0,1744474922.9353209
311,0.01090830782496456,-0.02181661564992912,-0.07308566242726255,0.24,-0.1,9.790000000000001,14.5625,12.25,-57.0,1744474922.9561367
312,0.002181661564992912,-0.01090830782496456,-0.08290313946973066,-0.34,0.15,9.84,14.5625,12.25,-57.0,1744474922.9772668
313,-0.006544984694978736,0.0,-0.025089107997418487,-0.19,0.17,9.83,15.0,11.875,-53.375,1744474922.995614
314,-0.006544984694978736,0.003272492347489368,-0.05235987755982989,-0.26,0.02,9.81,15.0,11.875,-53.375,1744474923.016213
315,-0.01090830782496456,0.002181661564992912,-0.06326818538479445,0.25,0.23,9.81,14.5625,11.1875,-52.25,1744474923.0352628
316,-0.00545415391248228,0.01090830782496456,0.0,-0.3,0.1,9.81,14.5625,11.1875,-52.25,1744474923.058159
317,-0.002181661564992912,0.004363323129985824,-0.011999138607461015,-0.26,-0.14,9.82,14.5625,11.1875,-52.25,1744474923.0765316
318,-0.002181661564992912,-0.00545415391248228,-0.003272492347489368,0.41000000000000003,-0.19,9.8,15.6875,11.1875,-51.5,1744474923.0963578
319,0.0,-0.006544984694978736,-0.022907446432425576,-0.02,-0.18,9.8,15.6875,11.1875,-51.5,1744474923.1171455
320,0.008726646259971648,-0.009817477042468103,-0.030543261909900768,0.01,-0.24,9.82,16.375,10.0625,-49.1875,1744474923.1349816
321,0.013089969389957472,0.015271630954950384,-0.07526732399225546,-0.06,-0.04,9.77,16.375,10.0625,-49.1875,1744474923.1565802
322,0.004363323129985824,0.008726646259971648,-0.07526732399225546,-0.02,0.08,9.84,16.375,10.0625,-49.1875,1744474923.1808236
323,0.001090830782496456,0.015271630954950384,-0.04908738521234052,-0.11,-0.19,9.81,16.375,10.75,-48.75,1744474923.1946468
324,0.01090830782496456,0.017453292519943295,-0.09381144729469522,0.01,-0.03,9.83,16.375,10.75,-48.75,1744474923.2191567
325,0.004363323129985824,0.020725784867432664,-0.031634092692397225,-0.42,-0.06,9.84,16.75,10.75,-47.1875,1744474923.2357187
326,0.01090830782496456,0.009817477042468103,-0.0818123086872342,-0.11,-0.1,9.78,16.75,10.75,-47.1875,1744474923.2565384
327,-0.001090830782496456,0.00545415391248228,-0.09599310885968812,-0.01,0.13,9.790000000000001,16.75,10.75,-47.1875,1744474923.2773504
328,0.008726646259971648,0.001090830782496456,-0.061086523819801536,-0.36,0.1,9.81,16.375,10.5,-47.25,1744474923.2952096
329,0.01090830782496456,0.00545415391248228,-0.050178215994836975,-0.32,-0.13,9.8,16.375,10.5,-47.25,1744474923.3178616
330,0.007635815477475192,-0.006544984694978736,-0.028361600344907856,-0.1,-0.08,9.81,17.0625,9.375,-46.0625,1744474923.3363104
331,0.00545415391248228,-0.006544984694978736,-0.038179077387375956,-0.18,0.09,9.78,17.0625,9.375,-46.0625,1744474923.3612645
332,0.00545415391248228,-0.001090830782496456,-0.004363323129985824,0.3,0.2,9.81,17.0625,9.375,-46.0625,1744474923.378352
333,0.006544984694978736,-0.019634954084936207,0.11453723216212788,-0.06,-0.19,9.83,17.0625,9.375,-45.6875,1744474923.4026098
334,0.001090830782496456,0.0,0.015271630954950384,0.19,-0.11,9.84,17.0625,9.375,-45.6875,1744474923.4180064
335,-0.002181661564992912,0.004363323129985824,-0.00545415391248228,0.05,0.03,9.81,17.5,9.375,-45.6875,1744474923.4431245
336,-0.011999138607461015,0.014180800172453928,-0.02945243112740431,0.09,0.0,9.790000000000001,17.5,9.375,-45.6875,1744474923.4595728
337,-0.006544984694978736,0.004363323129985824,-0.020725784867432664,-0.23,-0.01,9.790000000000001,17.5,9.375,-45.6875,1744474923.4779298
338,-0.008726646259971648,0.004363323129985824,-0.04690572364734761,0.0,0.06,9.790000000000001,17.875,8.5625,-45.375,1744474923.499022
339,-0.004363323129985824,0.00545415391248228,-0.04036073895236887,0.09,0.01,9.81,17.875,8.5625,-45.375,1744474923.5238678
340,-0.002181661564992912,0.0,-0.04581489286485115,-0.25,-0.05,9.83,18.25,8.25,-45.0,1744474923.538335
341,-0.001090830782496456,-0.00545415391248228,0.0,-0.19,-0.04,9.8,18.25,8.25,-45.0,1744474923.5587168
342,0.004363323129985824,-0.007635815477475192,-0.04036073895236887,-0.44,0.1,9.82,18.25,8.25,-45.0,1744474923.5787456
343,0.002181661564992912,-0.017453292519943295,-0.009817477042468103,-0.23,-0.09,9.83,18.25,8.25,-45.375,1744474923.6000118
344,-0.001090830782496456,-0.006544984694978736,-0.019634954084936207,-0.32,0.02,9.8,18.25,8.25,-45.375,1744474923.620195
345,0.0,-0.006544984694978736,-0.020725784867432664,-0.07,-0.05,9.790000000000001,18.25,8.0,-45.6875,1744474923.6405928
346,0.001090830782496456,-0.008726646259971648,-0.03381575425739013,0.01,-0.07,9.81,18.25,8.0,-45.6875,1744474923.6596441
347,-0.001090830782496456,-0.001090830782496456,-0.031634092692397225,-0.18,-0.03,9.790000000000001,18.25,8.0,-45.6875,1744474923.6791565
348,0.003272492347489368,-0.003272492347489368,-0.04254240051736178,-0.28,0.0,9.8,18.875,7.5625,-46.875,1744474923.702013
349,-0.003272492347489368,-0.002181661564992912,-0.017453292519943295,-0.27,0.02,9.83,18.875,7.5625,-46.875,1744474923.7215338
350,-0.006544984694978736,0.003272492347489368,-0.009817477042468103,-0.05,0.04,9.8,18.875,8.0,-45.375,1744474923.7425091
351,-0.002181661564992912,-0.002181661564992912,0.02399827721492203,-0.04,0.03,9.81,18.875,8.0,-45.375,1744474923.7624483
352,-0.002181661564992912,-0.00545415391248228,0.02945243112740431,-0.05,-0.03,9.8,18.875,8.0,-45.375,1744474923.7820272
353,-0.002181661564992912,-0.004363323129985824,0.014180800172453928,-0.33,-0.06,9.8,18.5625,7.1875,-45.375,1744474923.8049943
354,0.0,-0.003272492347489368,-0.016362461737446838,-0.34,0.0,9.8,18.5625,7.1875,-45.375,1744474923.8258681
355,0.0,-0.00545415391248228,-0.014180800172453928,-0.28,0.0,9.85,20.375,8.0,-46.0625,1744474923.8454576
356,-0.001090830782496456,-0.008726646259971648,0.006544984694978736,-0.11,0.0,9.790000000000001,20.375,8.0,-46.0625,1744474923.8652797
357,-0.002181661564992912,0.001090830782496456,0.00545415391248228,-0.03,0.01,9.82,19.25,7.5625,-45.375,1744474923.8845668
358,-0.001090830782496456,0.002181661564992912,0.00545415391248228,-0.04,0.0,9.82,19.25,7.5625,-45.375,1744474923.906269
359,0.003272492347489368,0.002181661564992912,0.006544984694978736,-0.05,0.0,9.83,19.25,7.5625,-45.375,1744474923.9267488
360,0.0,-0.001090830782496456,0.006544984694978736,-0.04,0.0,9.8,19.6875,7.5625,-45.0,1744474923.9469352
361,0.001090830782496456,-0.003272492347489368,0.003272492347489368,-0.04,0.0,9.83,19.6875,7.5625,-45.0,1744474923.965864
362,0.0,-0.001090830782496456,0.003272492347489368,-0.05,-0.02,9.84,20.0625,8.0,-44.1875,1744474923.9891226
363,-0.002181661564992912,0.003272492347489368,0.004363323129985824,-0.04,0.0,9.77,20.0625,8.0,-44.1875,1744474924.0060983
364,0.0,0.004363323129985824,0.002181661564992912,-0.04,0.0,9.83,20.0625,8.0,-44.1875,1744474924.0268185
365,-0.00545415391248228,0.004363323129985824,0.001090830782496456,-0.05,-0.02,9.82,18.5625,7.1875,-45.0,1744474924.0470028
366,-0.004363323129985824,0.001090830782496456,0.002181661564992912,-0.07,-0.01,9.790000000000001,18.5625,7.1875,-45.0,1744474924.0661662
367,0.001090830782496456,0.002181661564992912,0.001090830782496456,-0.04,0.0,9.81,20.0625,7.5625,-44.1875,1744474924.0866258
368,0.0,-0.003272492347489368,0.001090830782496456,-0.03,0.0,9.78,20.0625,7.5625,-44.1875,1744474924.1074224
369,0.002181661564992912,-0.004363323129985824,0.001090830782496456,-0.05,0.0,9.83,20.0625,7.5625,-44.1875,1744474924.1264799
370,0.001090830782496456,-0.00545415391248228,0.002181661564992912,-0.05,0.0,9.8,19.25,7.5625,-45.375,1744474924.1463845
371,0.002181661564992912,-0.004363323129985824,0.0,-0.06,0.0,9.81,19.25,7.5625,-45.375,1744474924.1703327
372,0.003272492347489368,-0.00545415391248228,0.0,-0.05,-0.02,9.8,19.0,8.0,-44.1875,1744474924.1865237
373,-0.001090830782496456,0.0,0.001090830782496456,-0.05,-0.01,9.81,19.0,8.0,-44.1875,1744474924.207096
374,0.004363323129985824,-0.006544984694978736,0.0,-0.06,0.0,9.78,19.0,8.0,-44.1875,1744474924.2307186
375,0.008726646259971648,-0.009817477042468103,0.001090830782496456,-0.07,0.0,9.81,19.6875,7.5625,-46.0625,1744474924.2469478
376,0.007635815477475192,-0.01090830782496456,0.04363323129985824,-0.12,0.03,9.81,19.6875,7.5625,-46.0625,1744474924.2693095
377,0.001090830782496456,-0.002181661564992912,-0.018544123302439753,-0.16,0.02,9.81,19.25,7.1875,-46.0625,1744474924.2891884
378,0.0,0.0,-0.006544984694978736,-0.29,0.07,9.78,19.25,7.1875,-46.0625,1744474924.3076193
379,0.0,0.00545415391248228,-0.003272492347489368,-0.16,0.0,9.84,19.25,7.1875,-46.0625,1744474924.3284588
380,0.00545415391248228,0.003272492347489368,0.016362461737446838,-0.05,-0.09,9.83,18.875,8.0,-45.6875,1744474924.3480825
381,0.004363323129985824,0.002181661564992912,0.04690572364734761,-0.02,-0.11,9.790000000000001,18.875,8.0,-45.6875,1744474924.3730156
382,0.004363323129985824,0.0,0.016362461737446838,-0.01,-0.05,9.83,19.0,8.0,-45.375,1744474924.3936975
383,-0.001090830782496456,0.002181661564992912,-0.00545415391248228,-0.19,-0.01,9.78,19.0,8.0,-45.375,1744474924.4119127
384,-0.001090830782496456,0.008726646259971648,0.004363323129985824,-0.28,0.0,9.82,19.0,8.0,-45.375,1744474924.4305558
385,-0.00545415391248228,0.013089969389957472,-0.004363323129985824,-0.44,0.11,9.76,18.5625,7.1875,-45.375,1744474924.4559722
386,-0.003272492347489368,0.013089969389957472,0.018544123302439753,-0.4,0.12,9.82,18.5625,7.1875,-45.375,1744474924.4791412
387,-0.016362461737446838,0.026179938779914945,-0.001090830782496456,-0.46,-0.09,9.81,18.875,7.5625,-44.875,1744474924.4938247
388,0.002181661564992912,0.0,0.04036073895236887,-0.19,-0.04,9.84,18.875,7.5625,-44.875,1744474924.5152204
389,0.00545415391248228,-0.009817477042468103,0.016362461737446838,-0.4,0.02,9.8,17.875,8.0,-45.375,1744474924.5342565
390,0.007635815477475192,-0.002181661564992912,-0.004363323129985824,-0.35000000000000003,0.11,9.790000000000001,17.875,8.0,-45.375,1744474924.5552979
391,0.01090830782496456,-0.009817477042468103,0.04254240051736178,-0.37,0.08,9.81,17.875,8.0,-45.375,1744474924.576499
392,0.01090830782496456,-0.018544123302439753,0.11344640137963143,-0.39,0.19,9.78,18.5625,8.5625,-46.0625,1744474924.5968788
393,0.001090830782496456,0.00545415391248228,0.11562806294462433,-0.27,0.15,9.81,18.5625,8.5625,-46.0625,1744474924.6160212
394,-0.004363323129985824,0.013089969389957472,0.11671889372712078,-0.11,-0.06,9.78,17.875,8.5625,-46.5,1744474924.637889
395,-0.009817477042468103,0.004363323129985824,0.0818123086872342,-0.08,0.06,9.78,17.875,8.5625,-46.5,1744474924.656134
396,-0.004363323129985824,0.009817477042468103,0.039269908169872414,-0.32,-0.02,9.84,17.875,8.5625,-46.5,1744474924.676409
397,-0.003272492347489368,0.003272492347489368,-0.01090830782496456,0.14,-0.1,9.8,17.1875,8.5625,-46.875,1744474924.6998308
398,-0.01090830782496456,0.003272492347489368,-0.019634954084936207,-0.24,0.18,9.790000000000001,17.1875,8.5625,-46.875,1744474924.7188222
399,-0.002181661564992912,0.00545415391248228,0.003272492347489368,0.2,0.03,9.8,17.0625,9.75,-48.0625,1744474924.7414188
400,0.00545415391248228,-0.013089969389957472,0.0719948316447661,0.1,-0.12,9.78,17.0625,9.75,-48.0625,1744474924.7630749
401,-0.006544984694978736,-0.025089107997418487,0.04799655442984406,-0.13,0.01,9.81,17.0625,9.75,-48.0625,1744474924.778413
402,0.001090830782496456,-0.015271630954950384,0.003272492347489368,0.27,0.17,9.84,16.75,9.75,-48.875,1744474924.8025663
403,0.002181661564992912,-0.009817477042468103,0.05999569303730508,0.35000000000000003,-0.11,9.83,16.75,9.75,-48.875,1744474924.8227894
404,-0.004363323129985824,-0.01090830782496456,0.039269908169872414,0.17,-0.05,9.81,15.6875,10.0625,-49.6875,1744474924.8393023
405,-0.007635815477475192,-0.011999138607461015,0.020725784867432664,0.22,-0.09,9.81,15.6875,10.0625,-49.6875,1744474924.862562
406,-0.001090830782496456,0.001090830782496456,0.039269908169872414,0.03,-0.11,9.82,15.6875,10.0625,-49.6875,1744474924.8823833
407,-0.006544984694978736,-0.004363323129985824,0.044724062082354694,0.22,-0.05,9.82,16.375,10.5,-49.6875,1744474924.9021723
408,-0.004363323129985824,-0.006544984694978736,0.06217735460229799,0.37,-0.04,9.8,16.375,10.5,-49.6875,1744474924.922703
409,0.002181661564992912,-0.008726646259971648,0.10471975511965978,0.07,-0.06,9.81,16.0625,10.75,-51.1875,1744474924.9418375
410,-0.001090830782496456,-0.006544984694978736,0.0272707695624114,-0.12,-0.02,9.790000000000001,16.0625,10.75,-51.1875,1744474924.9637444
411,-0.002181661564992912,-0.004363323129985824,0.011999138607461015,0.07,0.04,9.790000000000001,16.0625,10.75,-51.1875,1744474924.979951
412,0.0,-0.00545415391248228,-0.0272707695624114,-0.02,-0.04,9.8,16.0625,10.5,-52.75,1744474925.004662
413,0.011999138607461015,-0.016362461737446838,-0.05345070834232634,-0.25,0.07,9.790000000000001,16.0625,10.5,-52.75,1744474925.0231335
414,0.01090830782496456,-0.00545415391248228,-0.003272492347489368,-0.21,0.18,9.82,15.25,11.1875,-52.0,1744474925.0433354
415,0.004363323129985824,-0.003272492347489368,0.009817477042468103,0.09,0.06,9.82,15.25,11.1875,-52.0,1744474925.064436
416,0.00545415391248228,-0.009817477042468103,0.02399827721492203,-0.05,0.0,9.81,15.25,11.1875,-52.0,1744474925.080383
417,-0.003272492347489368,0.004363323129985824,0.04690572364734761,-0.13,0.01,9.77,15.6875,11.1875,-54.0,1744474925.1048281
418,0.0,0.006544984694978736,0.04908738521234052,0.2,0.01,9.78,15.6875,11.1875,-54.0,1744474925.1244164
419,0.0,0.007635815477475192,0.05999569303730508,0.2,-0.03,9.81,15.0,11.1875,-54.375,1744474925.1420708
420,0.001090830782496456,-0.001090830782496456,0.04690572364734761,-0.23,0.04,9.790000000000001,15.0,11.1875,-54.375,1744474925.1650553
421,0.003272492347489368,-0.004363323129985824,0.06217735460229799,0.04,0.02,9.790000000000001,14.25,11.5625,-56.25,1744474925.1861594
422,0.001090830782496456,-0.003272492347489368,0.04799655442984406,-0.04,0.09,9.81,14.25,11.5625,-56.25,1744474925.205152
423,-0.006544984694978736,0.003272492347489368,0.013089969389957472,0.18,0.08,9.82,14.25,11.5625,-56.25,1744474925.22505
424,-0.00545415391248228,0.008726646259971648,-0.022907446432425576,-0.03,0.11,9.78,14.5625,12.25,-55.875,1744474925.2443616
425,0.0,-0.002181661564992912,0.004363323129985824,0.21,-0.02,9.8,14.5625,12.25,-55.875,1744474925.2658427
426,0.002181661564992912,-0.001090830782496456,0.018544123302439753,0.28,0.0,9.790000000000001,14.5625,12.0,-57.5,1744474925.2849855
427,0.001090830782496456,-0.001090830782496456,-0.009817477042468103,0.2,0.0,9.790000000000001,14.5625,12.0,-57.5,1744474925.3050284
428,0.001090830782496456,0.0,-0.014180800172453928,0.12,-0.02,9.8,14.5625,12.0,-57.5,1744474925.325296
429,0.002181661564992912,-0.001090830782496456,-0.007635815477475192,-0.01,0.0,9.81,14.5625,12.5625,-58.6875,1744474925.3466446
430,-0.001090830782496456,-0.001090830782496456,-0.001090830782496456,0.0,0.01,9.84,14.5625,12.5625,-58.6875,1744474925.3657644
431,0.001090830782496456,-0.003272492347489368,-0.003272492347489368,-0.02,-0.01,9.83,15.375,11.5625,-58.25,1744474925.3856707
432,0.0,-0.001090830782496456,-0.002181661564992912,-0.05,-0.01,9.81,15.375,11.5625,-58.25,1744474925.4064527
433,-0.001090830782496456,-0.004363323129985824,0.0,-0.03,0.0,9.8,15.375,11.5625,-58.25,1744474925.4315267
434,0.001090830782496456,0.002181661564992912,-0.002181661564992912,-0.05,-0.01,9.83,15.0,11.875,-59.0,1744474925.4525204
435,0.001090830782496456,-0.003272492347489368,0.0,-0.06,0.0,9.81,15.0,11.875,-59.0,1744474925.4743404
436,0.0,-0.004363323129985824,0.001090830782496456,-0.04,-0.01,9.790000000000001,14.25,12.0,-56.25,1744474925.4952247
437,0.002181661564992912,-0.002181661564992912,0.0,-0.07,-0.01,9.8,14.25,12.0,-56.25,1744474925.5134797
438,0.001090830782496456,0.001090830782496456,0.001090830782496456,-0.05,0.0,9.81,13.875,11.5625,-58.6875,1744474925.5345306
439,0.0,-0.002181661564992912,-0.001090830782496456,-0.04,0.0,9.77,13.875,11.5625,-58.6875,1744474925.5539224
440,0.0,-0.001090830782496456,0.002181661564992912,-0.04,0.0,9.82,13.875,11.5625,-58.6875,1744474925.5740259
441,-0.001090830782496456,0.002181661564992912,0.001090830782496456,-0.03,0.0,9.77,14.25,12.0,-58.25,1744474925.5945268
442,-0.001090830782496456,0.003272492347489368,-0.001090830782496456,-0.05,0.0,9.8,14.25,12.0,-58.25,1744474925.6141353
443,0.002181661564992912,0.001090830782496456,-0.001090830782496456,-0.04,0.0,9.82,14.5625,11.5625,-59.0,1744474925.6347678
444,0.0,-0.003272492347489368,0.0,-0.05,0.0,9.790000000000001,14.5625,11.5625,-59.0,1744474925.655436
445,0.001090830782496456,0.002181661564992912,-0.003272492347489368,-0.05,0.0,9.82,14.5625,11.5625,-59.0,1744474925.674486
446,0.001090830782496456,0.004363323129985824,-0.018544123302439753,-0.02,0.0,9.81,15.0,12.0,-59.0,1744474925.6951244
447,0.001090830782496456,-0.002181661564992912,-0.07963064712224129,-0.02,-0.03,9.82,15.0,12.0,-59.0,1744474925.7172072
448,0.001090830782496456,-0.004363323129985824,-0.08726646259971647,0.05,-0.05,9.82,14.5625,13.0,-58.25,1744474925.7341983
449,0.003272492347489368,0.0,-0.014180800172453928,0.11,0.0,9.8,14.5625,13.0,-58.25,1744474925.7546258
450,0.002181661564992912,-0.004363323129985824,0.004363323129985824,0.2,-0.01,9.82,14.5625,13.0,-58.25,1744474925.7756567
451,0.001090830782496456,-0.004363323129985824,-0.025089107997418487,0.36,-0.04,9.83,13.875,12.5625,-58.25,1744474925.7949955
452,0.004363323129985824,-0.007635815477475192,0.001090830782496456,0.18,0.01,9.81,13.875,12.5625,-58.25,1744474925.8147283
453,0.003272492347489368,-0.003272492347489368,-0.015271630954950384,0.21,0.05,9.81,14.25,12.0,-57.5,1744474925.837931
454,0.004363323129985824,-0.009817477042468103,-0.037088246604879506,0.3,-0.02,9.75,14.25,12.0,-57.5,1744474925.8592286
455,0.002181661564992912,-0.009817477042468103,0.02945243112740431,0.29,0.02,9.78,14.25,12.0,-57.5,1744474925.8761115
456,-0.003272492347489368,-0.007635815477475192,0.044724062082354694,-0.22,-0.03,9.82,14.5625,11.5625,-56.375,1744474925.8957877
457,0.006544984694978736,-0.016362461737446838,0.07635815477475191,0.18,-0.11,9.78,14.5625,11.5625,-56.375,1744474925.9161997
458,0.003272492347489368,-0.007635815477475192,0.04145156973486533,0.1,0.05,9.8,14.25,12.0,-55.0625,1744474925.93772
459,0.004363323129985824,-0.007635815477475192,0.07526732399225546,-0.03,0.03,9.82,14.25,12.0,-55.0625,1744474925.9608784
460,-0.008726646259971648,0.001090830782496456,-0.006544984694978736,0.06,-0.03,9.81,14.25,12.0,-55.0625,1744474925.9781792
461,-0.022907446432425576,0.009817477042468103,-0.04908738521234052,0.08,-0.08,9.84,15.0,11.1875,-53.875,1744474926.0012634
462,-0.00545415391248228,0.003272492347489368,-0.044724062082354694,0.04,-0.03,9.81,15.0,11.1875,-53.875,1744474926.0223851
463,0.001090830782496456,-0.001090830782496456,-0.050178215994836975,-0.08,0.03,9.83,15.0,11.1875,-52.25,1744474926.0389233
464,0.004363323129985824,-0.01090830782496456,-0.0719948316447661,0.07,-0.08,9.78,15.0,11.1875,-52.25,1744474926.0615687
465,-0.002181661564992912,-0.009817477042468103,-0.04036073895236887,0.02,-0.01,9.790000000000001,15.0,11.1875,-52.25,1744474926.0785513
466,0.0,-0.01090830782496456,0.026179938779914945,0.25,0.0,9.8,15.25,10.5,-51.5,1744474926.101519
467,0.006544984694978736,-0.002181661564992912,0.02945243112740431,-0.1,-0.01,9.82,15.25,10.5,-51.5,1744474926.123011
468,0.004363323129985824,-0.001090830782496456,0.06435901616729091,0.33,-0.01,9.81,15.0,10.5,-50.375,1744474926.1400473
469,0.003272492347489368,0.008726646259971648,-0.002181661564992912,-0.01,0.06,9.82,15.0,10.5,-50.375,1744474926.1626952
470,0.003272492347489368,0.020725784867432664,-0.02181661564992912,-0.27,0.09,9.82,15.375,10.5,-48.875,1744474926.181147
471,0.002181661564992912,0.018544123302439753,-0.11780972450961724,0.17,-0.3,9.81,15.375,10.5,-48.875,1744474926.202566
472,0.006544984694978736,0.017453292519943295,-0.17671458676442586,-0.19,-0.13,9.8,15.375,10.5,-48.875,1744474926.2233448
473,0.008726646259971648,0.0,-0.1308996938995747,-0.63,-0.02,9.78,16.75,9.375,-48.0625,1744474926.2420492
474,-0.002181661564992912,-0.002181661564992912,-0.02181661564992912,-0.45,0.05,9.83,16.75,9.375,-48.0625,1744474926.2627919
475,0.008726646259971648,-0.00545415391248228,0.08072147790473774,0.06,0.09,9.790000000000001,17.1875,9.75,-47.6875,1744474926.2812335
476,0.009817477042468103,0.004363323129985824,0.12217304763960307,-0.16,0.05,9.77,17.1875,9.75,-47.6875,1744474926.3030894
477,0.004363323129985824,0.004363323129985824,0.020725784867432664,-0.22,0.03,9.84,17.1875,9.75,-47.6875,1744474926.3238451
478,-0.001090830782496456,-0.004363323129985824,-0.025089107997418487,0.0,-0.04,9.81,17.5,9.375,-46.5,1744474926.3421645
479,0.01090830782496456,-0.01090830782496456,-0.05890486225480862,-0.12,-0.08,9.83,17.5,9.375,-46.5,1744474926.3642735
480,0.016362461737446838,-0.015271630954950384,-0.03490658503988659,-0.22,0.0,9.83,17.5,9.0,-46.1875,1744474926.381972
481,0.003272492347489368,-0.006544984694978736,-0.038179077387375956,-0.13,0.11,9.77,17.5,9.0,-46.1875,1744474926.4031024
482,-0.004363323129985824,0.002181661564992912,0.020725784867432664,-0.22,0.02,9.81,17.5,9.0,-46.1875,1744474926.4250093
483,-0.007635815477475192,0.009817477042468103,0.011999138607461015,0.23,0.04,9.81,17.5,8.5625,-45.375,1744474926.4430454
484,-0.002181661564992912,0.004363323129985824,0.02181661564992912,-0.04,-0.08,9.82,17.5,8.5625,-45.375,1744474926.4649336
485,-0.00545415391248228,0.009817477042468103,-0.008726646259971648,-0.03,-0.09,9.790000000000001,17.875,9.0,-45.6875,1744474926.483936
486,-0.00545415391248228,0.001090830782496456,0.05999569303730508,-0.15,0.03,9.78,17.875,9.0,-45.6875,1744474926.5031137
487,-0.002181661564992912,0.001090830782496456,0.04145156973486533,-0.22,-0.06,9.81,17.875,9.0,-45.6875,1744474926.523824
488,0.0,0.003272492347489368,-0.03599741582238305,-0.04,0.03,9.81,19.0,8.25,-45.375,1744474926.54328
489,-0.001090830782496456,0.001090830782496456,-0.032724923474893676,-0.24,-0.07,9.790000000000001,19.0,8.25,-45.375,1744474926.5643356
490,-0.004363323129985824,-0.003272492347489368,-0.0272707695624114,-0.05,0.02,9.81,19.0,8.25,-46.1875,1744474926.5839303
491,0.004363323129985824,-0.006544984694978736,-0.07635815477475191,0.1,0.04,9.790000000000001,19.0,8.25,-46.1875,1744474926.603811
492,0.002181661564992912,-0.009817477042468103,-0.026179938779914945,0.16,-0.08,9.81,19.0,8.25,-46.1875,1744474926.6249638
493,-0.002181661564992912,-0.002181661564992912,-0.01090830782496456,0.1,-0.01,9.81,19.0,8.5625,-45.0,1744474926.644474
494,-0.003272492347489368,-0.008726646259971648,0.007635815477475192,0.05,-0.02,9.8,19.0,8.5625,-45.0,1744474926.6642985
495,0.003272492347489368,-0.01090830782496456,-0.001090830782496456,-0.34,0.0,9.82,19.25,7.5625,-44.1875,1744474926.6855392
496,-0.001090830782496456,-0.003272492347489368,-0.020725784867432664,-0.45,0.03,9.790000000000001,19.25,7.5625,-44.1875,1744474926.7068639
497,-0.001090830782496456,-0.009817477042468103,-0.013089969389957472,-0.19,-0.1,9.790000000000001,19.25,7.5625,-44.1875,1744474926.7250266
498,-0.004363323129985824,-0.003272492347489368,-0.03490658503988659,-0.04,-0.02,9.82,19.6875,7.5625,-45.0,1744474926.744802
499,-0.00545415391248228,-0.004363323129985824,-0.020725784867432664,-0.13,-0.04,9.82,19.6875,7.5625,-45.0,1744474926.7686937
500,-0.004363323129985824,-0.006544984694978736,-0.04908738521234052,-0.06,-0.03,9.82,19.25,8.0,-44.5625,1744474926.7853255
501,0.0,-0.002181661564992912,0.025089107997418487,-0.02,-0.08,9.78,19.25,8.0,-44.5625,1744474926.8054612
502,-0.003272492347489368,-0.004363323129985824,0.04036073895236887,0.06,-0.01,9.83,19.25,8.0,-44.5625,1744474926.828162
503,-0.001090830782496456,-0.00545415391248228,-0.008726646259971648,-0.21,-0.01,9.790000000000001,19.25,8.0,-45.0,1744474926.845537
504,-0.009817477042468103,-0.001090830782496456,-0.055632369907319255,-0.08,0.01,9.77,19.25,8.0,-45.0,1744474926.871046
505,0.0,-0.004363323129985824,-0.019634954084936207,-0.22,-0.01,9.83,19.0,6.5,-44.1875,1744474926.891326
506,-0.00545415391248228,-0.003272492347489368,-0.009817477042468103,-0.12,-0.03,9.8,19.0,6.5,-44.1875,1744474926.909994
507,-0.004363323129985824,-0.004363323129985824,0.001090830782496456,-0.1,-0.06,9.81,19.0,6.5,-44.1875,1744474926.9292104
508,-0.002181661564992912,-0.007635815477475192,0.025089107997418487,0.0,-0.06,9.790000000000001,20.0625,7.5625,-44.1875,1744474926.9512336
509,0.001090830782496456,-0.003272492347489368,-0.028361600344907856,-0.26,-0.03,9.82,20.0625,7.5625,-44.1875,1744474926.9710908
510,0.001090830782496456,-0.003272492347489368,-0.028361600344907856,-0.28,-0.02,9.82,20.0625,6.75,-45.0,1744474926.9880357
511,0.0,0.001090830782496456,-0.030543261909900768,-0.12,-0.01,9.82,20.0625,6.75,-45.0,1744474927.010904
512,0.001090830782496456,-0.001090830782496456,-0.032724923474893676,-0.02,-0.01,9.81,20.0625,6.75,-45.375,1744474927.0312974
513,0.001090830782496456,-0.00545415391248228,-0.017453292519943295,-0.12,-0.02,9.8,20.0625,6.75,-45.375,1744474927.0515175
514,0.0,-0.002181661564992912,-0.04036073895236887,-0.13,-0.04,9.83,20.0625,6.75,-45.375,1744474927.0720181
515,0.0,-0.003272492347489368,-0.019634954084936207,-0.08,-0.04,9.81,20.75,7.1875,-45.375,1744474927.0960488
516,-0.002181661564992912,-0.003272492347489368,0.003272492347489368,-0.05,-0.04,9.81,20.75,7.1875,-45.375,1744474927.1115992
517,0.002181661564992912,-0.001090830782496456,-0.004363323129985824,-0.07,-0.05,9.81,20.0625,7.1875,-44.5,1744474927.1336384
518,0.002181661564992912,-0.003272492347489368,0.009817477042468103,-0.04,-0.03,9.81,20.0625,7.1875,-44.5,1744474927.1523833
519,-0.002181661564992912,0.0,0.015271630954950384,-0.08,-0.03,9.8,20.0625,7.1875,-44.5,1744474927.172488
520,0.0,-0.006544984694978736,0.018544123302439753,0.0,-0.05,9.84,19.6875,6.0625,-44.5625,1744474927.1925278
521,0.003272492347489368,-0.00545415391248228,0.006544984694978736,-0.06,-0.03,9.790000000000001,19.6875,6.0625,-44.5625,1744474927.2123146
522,0.0,-0.00545415391248228,-0.003272492347489368,-0.09,-0.03,9.82,20.75,6.75,-45.375,1744474927.2346241
523,0.0,-0.002181661564992912,0.0,-0.04,-0.05,9.81,20.75,6.75,-45.375,1744474927.2524908
524,0.002181661564992912,0.0,0.002181661564992912,-0.03,-0.03,9.82,20.75,6.75,-45.375,1744474927.2729492
525,0.0,0.0,0.001090830782496456,-0.03,-0.05,9.82,21.0625,7.1875,-45.6875,1744474927.2949657
526,0.002181661564992912,-0.001090830782496456,0.001090830782496456,-0.05,-0.03,9.8,21.0625,7.1875,-45.6875,1744474927.3131926
527,0.001090830782496456,-0.00545415391248228,0.002181661564992912,-0.03,0.0,9.82,19.6875,6.0625,-45.375,1744474927.3350942
528,0.004363323129985824,-0.008726646259971648,0.004363323129985824,-0.06,-0.03,9.8,19.6875,6.0625,-45.375,1744474927.3555684
529,0.002181661564992912,-0.002181661564992912,0.07417649320975901,-0.45,0.01,9.81,19.6875,6.0625,-45.375,1744474927.3735356
530,0.001090830782496456,0.001090830782496456,0.044724062082354694,-0.52,-0.01,9.83,20.75,6.0625,-44.5625,1744474927.3971837
531,0.002181661564992912,0.006544984694978736,0.001090830782496456,-0.48,-0.01,9.84,20.75,6.0625,-44.5625,1744474927.4203956
532,-0.001090830782496456,0.009817477042468103,-0.002181661564992912,-0.16,-0.07,9.82,19.6875,7.25,-45.0,1744474927.4413784
533,0.007635815477475192,-0.001090830782496456,0.008726646259971648,-0.18,-0.1,9.790000000000001,19.6875,7.25,-45.0,1744474927.4611807
534,0.013089969389957472,-0.008726646259971648,0.030543261909900768,-0.52,-0.14,9.81,19.6875,6.875,-45.375,1744474927.4797025
535,0.00545415391248228,-0.003272492347489368,-0.011999138607461015,-0.41000000000000003,-0.05,9.8,19.6875,6.875,-45.375,1744474927.5008712
536,0.01090830782496456,0.003272492347489368,-0.015271630954950384,-0.39,0.07,9.81,19.6875,6.875,-45.375,1744474927.520673
537,0.01090830782496456,-0.003272492347489368,0.07744898555724837,-0.84,0.12,9.81,19.6875,6.875,-44.5625,1744474927.5418634
538,0.013089969389957472,0.001090830782496456,0.10690141668465268,-0.36,-0.08,9.81,19.6875,6.875,-44.5625,1744474927.5611875
539,0.001090830782496456,0.013089969389957472,0.11453723216212788,-0.31,-0.03,9.8,19.0,7.6875,-44.5625,1744474927.5800498
540,-0.009817477042468103,0.025089107997418487,0.11671889372712078,0.09,-0.11,9.81,19.0,7.6875,-44.5625,1744474927.6023324
541,-0.004363323129985824,0.026179938779914945,0.1308996938995747,0.43,0.02,9.81,19.0,7.6875,-44.5625,1744474927.6214564
542,-0.001090830782496456,-0.00545415391248228,0.20507618710933373,0.26,-0.2,9.790000000000001,19.0,7.6875,-44.5625,1744474927.6411877
543,0.006544984694978736,-0.01090830782496456,0.10799224746714914,-0.01,0.0,9.81,19.0,7.6875,-44.5625,1744474927.662396
544,0.011999138607461015,-0.020725784867432664,0.09272061651219876,0.19,-0.02,9.8,19.0,8.0625,-43.75,1744474927.680907
545,0.002181661564992912,-0.002181661564992912,0.04254240051736178,0.01,0.11,9.790000000000001,19.0,8.0625,-43.75,1744474927.7035723
546,-0.004363323129985824,0.002181661564992912,0.013089969389957472,0.32,0.03,9.8,19.0,8.0625,-43.75,1744474927.7242403
547,-0.004363323129985824,-0.004363323129985824,0.050178215994836975,0.01,0.0,9.82,18.5625,8.25,-45.375,1744474927.7419524
548,-0.009817477042468103,0.013089969389957472,0.008726646259971648,-0.14,0.16,9.790000000000001,18.5625,8.25,-45.375,1744474927.7617462
549,-0.004363323129985824,0.013089969389957472,-0.004363323129985824,0.01,0.05,9.81,18.25,8.25,-46.5,1744474927.7847826
550,-0.00545415391248228,0.00545415391248228,0.02181661564992912,-0.13,-0.09,9.82,18.25,8.25,-46.5,1744474927.8029444
551,-0.008726646259971648,-0.008726646259971648,0.04363323129985824,0.17,-0.19,9.83,18.25,8.25,-46.5,1744474927.8221946
552,-0.001090830782496456,-0.01090830782496456,0.008726646259971648,0.07,0.01,9.83,17.875,8.5625,-47.375,1744474927.842432
553,-0.002181661564992912,-0.025089107997418487,0.061086523819801536,-0.02,-0.07,9.84,17.875,8.5625,-47.375,1744474927.8620577
554,-0.006544984694978736,-0.015271630954950384,-0.015271630954950384,0.12,-0.17,9.83,17.1875,8.25,-47.6875,1744474927.884017
555,0.003272492347489368,-0.014180800172453928,0.009817477042468103,-0.03,-0.01,9.81,17.1875,8.25,-47.6875,1744474927.9028835
556,0.001090830782496456,-0.002181661564992912,0.002181661564992912,0.08,0.0,9.81,17.1875,8.25,-47.6875,1744474927.9224596
557,0.001090830782496456,-0.020725784867432664,0.0,0.05,0.02,9.8,16.75,8.25,-49.25,1744474927.9482744
558,-0.007635815477475192,-0.014180800172453928,0.008726646259971648,0.27,-0.05,9.82,16.75,8.25,-49.25,1744474927.9684274
559,-0.002181661564992912,-0.009817477042468103,-0.007635815477475192,-0.09,0.01,9.8,16.375,9.0,-47.6875,1744474927.9860497
560,-0.001090830782496456,-0.003272492347489368,-0.02945243112740431,0.08,-0.04,9.8,16.375,9.0,-47.6875,1744474928.0072856
561,-0.006544984694978736,-0.006544984694978736,0.0719948316447661,0.1,-0.04,9.790000000000001,16.375,9.0,-47.6875,1744474928.0248876
562,-0.00545415391248228,-0.003272492347489368,0.03599741582238305,0.05,-0.01,9.8,16.0625,9.0,-49.6875,1744474928.0461085
563,-0.003272492347489368,-0.006544984694978736,0.00545415391248228,0.05,-0.07,9.790000000000001,16.0625,9.0,-49.6875,1744474928.0691545
564,-0.006544984694978736,-0.004363323129985824,-0.032724923474893676,-0.41000000000000003,0.05,9.83,15.6875,9.75,-51.6875,1744474928.0850909
565,0.006544984694978736,-0.00545415391248228,-0.04145156973486533,-0.13,-0.03,9.8,15.6875,9.75,-51.6875,1744474928.1073868
566,-0.001090830782496456,-0.007635815477475192,-0.038179077387375956,-0.15,0.03,9.83,15.6875,9.75,-51.6875,1744474928.1263952
567,-0.001090830782496456,0.007635815477475192,-0.04363323129985824,0.09,-0.05,9.8,16.0625,10.5,-51.1875,1744474928.1480515
568,-0.002181661564992912,0.011999138607461015,-0.028361600344907856,0.24,-0.11,9.83,16.0625,10.5,-51.1875,1744474928.1693463
569,0.00545415391248228,-0.007635815477475192,0.039269908169872414,0.08,-0.11,9.82,15.6875,10.5,-52.0,1744474928.1878543
570,0.008726646259971648,-0.013089969389957472,-0.032724923474893676,0.13,0.07,9.790000000000001,15.6875,10.5,-52.0,1744474928.2082646
571,0.01090830782496456,-0.00545415391248228,-0.06217735460229799,0.3,0.0,9.81,15.6875,10.5,-52.0,1744474928.2258978
572,0.003272492347489368,-0.008726646259971648,0.015271630954950384,0.19,0.07,9.78,15.375,10.5,-53.5625,1744474928.249733
573,0.003272492347489368,-0.00545415391248228,0.02399827721492203,0.15,-0.01,9.83,15.375,10.5,-53.5625,1744474928.2689764
574,0.004363323129985824,-0.00545415391248228,-0.015271630954950384,-0.13,-0.02,9.790000000000001,15.0,10.75,-54.375,1744474928.28922
575,0.001090830782496456,0.0,-0.017453292519943295,0.24,0.01,9.8,15.0,10.75,-54.375,1744474928.3112996
576,-0.006544984694978736,-0.002181661564992912,0.01090830782496456,0.22,0.0,9.8,15.0,10.75,-54.375,1744474928.328024
577,0.002181661564992912,0.002181661564992912,0.018544123302439753,0.16,0.0,9.82,14.5625,10.5,-55.5625,1744474928.3496
578,-0.001090830782496456,-0.00545415391248228,0.001090830782496456,0.16,0.0,9.790000000000001,14.5625,10.5,-55.5625,1744474928.3702993
579,-0.001090830782496456,0.0,-0.015271630954950384,0.05,0.0,9.8,14.25,10.75,-55.1875,1744474928.3893704
580,-0.002181661564992912,0.0,0.009817477042468103,0.14,-0.04,9.83,14.25,10.75,-55.1875,1744474928.4095476
581,0.002181661564992912,0.002181661564992912,-0.01090830782496456,0.1,-0.01,9.82,13.5,10.5,-55.5,1744474928.429394
582,0.0,-0.001090830782496456,-0.003272492347489368,0.0,-0.02,9.81,13.5,10.5,-55.5,1744474928.4494076
583,0.001090830782496456,0.002181661564992912,0.001090830782496456,-0.02,0.0,9.8,13.5,10.5,-55.5,1744474928.4715095
584,0.0,0.001090830782496456,0.004363323129985824,-0.05,0.0,9.8,14.5625,10.75,-56.0,1744474928.489484
585,0.0,0.001090830782496456,0.002181661564992912,-0.03,-0.03,9.8,14.5625,10.75,-56.0,1744474928.5097651
586,0.001090830782496456,-0.001090830782496456,0.002181661564992912,-0.04,-0.01,9.81,15.6875,11.1875,-56.375,1744474928.5296302
587,0.001090830782496456,-0.004363323129985824,0.002181661564992912,-0.03,-0.01,9.8,15.6875,11.1875,-56.375,1744474928.549678
588,-0.001090830782496456,0.003272492347489368,0.004363323129985824,-0.02,0.0,9.83,15.6875,11.1875,-56.375,1744474928.5714087
589,0.001090830782496456,0.003272492347489368,0.0,-0.03,0.0,9.790000000000001,15.0,11.5625,-54.75,1744474928.5914361
590,-0.001090830782496456,0.001090830782496456,0.002181661564992912,-0.02,0.0,9.83,15.0,11.5625,-54.75,1744474928.6105733
591,-0.001090830782496456,0.0,0.0,-0.04,-0.01,9.84,15.0,11.5625,-55.5,1744474928.631951
592,0.001090830782496456,0.0,-0.001090830782496456,-0.02,-0.01,9.790000000000001,15.0,11.5625,-55.5,1744474928.6520233
593,-0.001090830782496456,0.001090830782496456,0.0,-0.03,-0.02,9.790000000000001,15.0,11.5625,-55.5,1744474928.670962
594,-0.001090830782496456,0.0,0.0,-0.04,-0.01,9.81,14.5625,11.5625,-56.375,1744474928.6908793
595,0.0,0.00545415391248228,-0.002181661564992912,-0.02,-0.01,9.82,14.5625,11.5625,-56.375,1744474928.7116752
596,0.0,0.001090830782496456,0.001090830782496456,-0.02,-0.02,9.82,15.375,11.1875,-55.5,1744474928.7314184
597,-0.00545415391248228,0.001090830782496456,-0.001090830782496456,-0.01,-0.03,9.8,15.375,11.1875,-55.5,1744474928.750998
598,-0.003272492347489368,-0.002181661564992912,-0.00545415391248228,-0.02,-0.01,9.78,15.375,11.1875,-55.5,1744474928.7733643
599,-0.001090830782496456,0.0,-0.04363323129985824,0.22,0.08,9.81,14.5625,12.0,-55.5,1744474928.7910504
600,0.0,0.0,-0.07635815477475191,0.26,0.04,9.82,14.5625,12.0,-55.5,1744474928.811625
601,0.003272492347489368,-0.004363323129985824,-0.0545415391248228,0.48,-0.05,9.8,13.875,10.75,-56.375,1744474928.8310685
602,0.006544984694978736,-0.008726646259971648,-0.006544984694978736,0.19,-0.07,9.8,13.875,10.75,-56.375,1744474928.8511605
603,0.006544984694978736,-0.01090830782496456,0.028361600344907856,0.1,-0.15,9.8,13.875,10.75,-56.375,1744474928.8716738
604,0.0,-0.004363323129985824,-0.017453292519943295,0.16,-0.04,9.78,14.5625,11.5625,-54.75,1744474928.8916101
605,-0.004363323129985824,-0.006544984694978736,-0.06544984694978735,0.26,0.04,9.790000000000001,14.5625,11.5625,-54.75,1744474928.9117732
606,-0.003272492347489368,-0.009817477042468103,-0.03490658503988659,0.34,-0.06,9.82,15.0,11.1875,-54.75,1744474928.9321413
607,-0.003272492347489368,-0.017453292519943295,-0.044724062082354694,0.51,-0.02,9.790000000000001,15.0,11.1875,-54.75,1744474928.951877
608,-0.004363323129985824,0.003272492347489368,-0.08835729338221293,0.23,0.0,9.81,15.0,11.1875,-54.75,1744474928.973323
609,-0.003272492347489368,-0.013089969389957472,-0.0272707695624114,0.19,-0.17,9.83,15.0,10.5,-53.5625,1744474928.9930859
610,-0.009817477042468103,-0.003272492347489368,-0.06435901616729091,0.34,0.0,9.83,15.0,10.5,-53.5625,1744474929.0130734
611,0.002181661564992912,-0.02181661564992912,0.07853981633974483,0.35000000000000003,0.05,9.8,13.875,10.75,-51.6875,1744474929.0325038
612,0.0,-0.002181661564992912,0.039269908169872414,0.01,-0.21,9.82,13.875,10.75,-51.6875,1744474929.0562654
613,0.01090830782496456,-0.014180800172453928,-0.022907446432425576,0.06,-0.14,9.84,13.875,10.75,-51.6875,1744474929.072588
614,0.008726646259971648,-0.02399827721492203,-0.09599310885968812,0.27,-0.36,9.82,16.0625,9.375,-50.875,1744474929.0932078
615,0.013089969389957472,-0.011999138607461015,-0.1559888018969932,0.18,-0.21,9.82,16.0625,9.375,-50.875,1744474929.1163058
616,0.006544984694978736,-0.031634092692397225,-0.1505346479845109,0.04,0.0,9.81,15.375,10.0625,-50.5,1744474929.13303
617,0.006544984694978736,-0.01090830782496456,-0.1505346479845109,0.17,0.12,9.81,15.375,10.0625,-50.5,1744474929.1555812
618,-0.002181661564992912,-0.006544984694978736,-0.1189005552921137,0.08,-0.17,9.82,15.375,10.0625,-50.5,1744474929.1751354
619,-0.004363323129985824,0.009817477042468103,-0.08835729338221293,-0.2,-0.1,9.790000000000001,16.75,10.0625,-48.0625,1744474929.1941283
620,0.01090830782496456,0.01090830782496456,-0.07090400086226964,-0.12,0.13,9.8,16.75,10.0625,-48.0625,1744474929.2158732
621,0.014180800172453928,0.039269908169872414,-0.04363323129985824,0.15,0.07,9.81,17.5,9.75,-46.875,1744474929.234238
622,0.013089969389957472,0.05345070834232634,-0.04254240051736178,0.14,0.11,9.78,17.5,9.75,-46.875,1744474929.2561762
623,0.01090830782496456,-0.002181661564992912,0.0272707695624114,-0.06,-0.08,9.8,17.5,9.75,-46.875,1744474929.2740502
624,0.007635815477475192,-0.04363323129985824,0.07963064712224129,0.07,0.02,9.84,17.875,9.0,-45.375,1744474929.2951436
625,0.009817477042468103,-0.022907446432425576,-0.003272492347489368,-0.17,0.09,9.790000000000001,17.875,9.0,-45.375,1744474929.317268
626,-0.006544984694978736,-0.004363323129985824,-0.07417649320975901,-0.44,0.27,9.81,18.5625,8.5625,-46.1875,1744474929.3342612
627,-0.006544984694978736,0.00545415391248228,-0.10799224746714914,-0.03,0.0,9.74,18.5625,8.5625,-46.1875,1744474929.3573885
628,-0.02181661564992912,0.0272707695624114,-0.12217304763960307,0.01,-0.06,9.790000000000001,18.5625,8.5625,-46.1875,1744474929.374773
629,-0.002181661564992912,0.009817477042468103,-0.11126473981463851,-0.03,0.03,9.83,18.25,8.5625,-44.5625,1744474929.3985016
630,-0.008726646259971648,-0.009817477042468103,-0.04581489286485115,-0.47000000000000003,0.0,9.82,18.25,8.5625,-44.5625,1744474929.4193075
631,-0.002181661564992912,-0.007635815477475192,-0.031634092692397225,-0.19,-0.03,9.83,18.25,8.0,-44.1875,1744474929.4361403
632,-0.008726646259971648,0.009817477042468103,-0.014180800172453928,-0.11,0.0,9.82,18.25,8.0,-44.1875,1744474929.4595501
633,-0.014180800172453928,0.014180800172453928,-0.06763150851478027,-0.36,0.14,9.81,18.25,8.0,-44.1875,1744474929.4763556
634,-0.011999138607461015,0.007635815477475192,0.020725784867432664,-0.59,-0.03,9.82,19.25,8.5625,-44.5625,1744474929.497932
635,-0.014180800172453928,0.022907446432425576,-0.0545415391248228,-0.44,0.0,9.83,19.25,8.5625,-44.5625,1744474929.51917
636,-0.008726646259971648,0.007635815477475192,-0.02181661564992912,0.09,0.01,9.8,19.0,7.5625,-44.1875,1744474929.5378594
637,0.001090830782496456,-0.018544123302439753,0.039269908169872414,-0.18,-0.03,9.8,19.0,7.5625,-44.1875,1744474929.5586195
638,0.001090830782496456,-0.001090830782496456,-0.04036073895236887,0.07,-0.04,9.83,19.6875,7.5625,-45.375,1744474929.5792744
639,0.001090830782496456,0.001090830782496456,-0.04799655442984406,0.06,-0.07,9.8,19.6875,7.5625,-45.375,1744474929.5979836
640,-0.001090830782496456,0.00545415391248228,-0.04145156973486533,-0.05,-0.03,9.8,19.6875,7.5625,-45.375,1744474929.6185844
641,-0.002181661564992912,-0.009817477042468103,-0.0272707695624114,-0.11,0.06,9.84,20.0625,7.1875,-45.75,1744474929.6386273
642,-0.001090830782496456,0.014180800172453928,-0.028361600344907856,-0.13,-0.02,9.82,20.0625,7.1875,-45.75,1744474929.6589339
643,-0.004363323129985824,0.006544984694978736,-0.037088246604879506,-0.13,-0.03,9.83,20.0625,7.1875,-45.375,1744474929.6789205
644,0.002181661564992912,-0.011999138607461015,0.006544984694978736,-0.06,-0.19,9.790000000000001,20.0625,7.1875,-45.375,1744474929.6999314
645,0.003272492347489368,-0.017453292519943295,-0.006544984694978736,-0.12,-0.04,9.82,20.0625,7.1875,-45.375,1744474929.7196844
646,-0.001090830782496456,-0.01090830782496456,-0.044724062082354694,-0.35000000000000003,-0.01,9.83,20.75,6.5,-45.0,1744474929.7380168
647,-0.007635815477475192,-0.009817477042468103,-0.07308566242726255,-0.24,0.02,9.81,20.75,6.5,-45.0,1744474929.7620246
648,-0.004363323129985824,-0.01090830782496456,-0.05235987755982989,-0.47000000000000003,-0.04,9.82,21.0,6.5,-45.375,1744474929.7800028
649,-0.006544984694978736,0.003272492347489368,-0.06217735460229799,-0.27,-0.09,9.82,21.0,6.5,-45.375,1744474929.7993767
650,0.0,0.002181661564992912,-0.026179938779914945,-0.14,-0.07,9.790000000000001,21.0,6.5,-45.375,1744474929.822142
651,0.0,0.00545415391248228,-0.02399827721492203,-0.05,-0.03,9.82,21.0,7.1875,-44.1875,1744474929.8396893
652,-0.001090830782496456,0.004363323129985824,-0.017453292519943295,-0.01,-0.05,9.8,21.0,7.1875,-44.1875,1744474929.8605924
653,-0.001090830782496456,0.001090830782496456,-0.011999138607461015,-0.01,-0.03,9.83,21.75,6.5,-46.5,1744474929.8812764
654,0.002181661564992912,-0.001090830782496456,0.0,-0.04,-0.03,9.82,21.75,6.5,-46.5,1744474929.8999374
655,-0.001090830782496456,-0.00545415391248228,0.006544984694978736,-0.03,-0.03,9.82,21.75,6.5,-46.5,1744474929.9202304
656,-0.001090830782496456,0.001090830782496456,0.002181661564992912,-0.03,-0.04,9.83,21.75,6.5,-45.375,1744474929.9401643
657,-0.001090830782496456,-0.001090830782496456,0.00545415391248228,0.0,-0.03,9.82,21.75,6.5,-45.375,1744474929.962824
658,0.0,0.01090830782496456,0.008726646259971648,-0.01,-0.01,9.84,21.0,6.0625,-45.75,1744474929.9859128
659,0.0,0.004363323129985824,-0.003272492347489368,0.0,-0.03,9.78,21.0,6.0625,-45.75,1744474930.0043235
660,0.0,0.001090830782496456,-0.001090830782496456,-0.02,-0.04,9.82,21.0,6.0625,-45.75,1744474930.0220227
661,0.001090830782496456,-0.001090830782496456,-0.013089969389957472,-0.05,-0.06,9.81,21.375,7.1875,-45.75,1744474930.0460134
662,0.0,-0.001090830782496456,-0.007635815477475192,-0.07,-0.07,9.81,21.375,7.1875,-45.75,1744474930.0650024
663,0.003272492347489368,-0.001090830782496456,0.013089969389957472,0.0,-0.02,9.81,21.75,6.0625,-44.5625,1744474930.0878935
664,0.002181661564992912,0.003272492347489368,0.003272492347489368,-0.04,-0.06,9.8,21.75,6.0625,-44.5625,1744474930.1081572
665,0.003272492347489368,0.004363323129985824,0.001090830782496456,-0.05,-0.05,9.82,21.375,6.5,-45.375,1744474930.1277945
666,0.002181661564992912,0.003272492347489368,0.0,-0.02,-0.06,9.81,21.375,6.5,-45.375,1744474930.1478271
667,0.003272492347489368,-0.002181661564992912,0.004363323129985824,-0.05,-0.06,9.8,21.375,6.5,-45.375,1744474930.168458
668,0.003272492347489368,-0.00545415391248228,0.015271630954950384,-0.07,-0.04,9.82,20.25,6.5,-45.375,1744474930.1888893
669,0.00545415391248228,-0.019634954084936207,0.07744898555724837,-0.25,-0.05,9.82,20.25,6.5,-45.375,1744474930.207878
670,0.003272492347489368,-0.017453292519943295,0.13853550937704992,-0.35000000000000003,-0.06,9.8,21.75,6.5,-44.5625,1744474930.2263143
671,0.001090830782496456,0.001090830782496456,0.006544984694978736,-0.38,-0.03,9.78,21.75,6.5,-44.5625,1744474930.2480857
672,0.003272492347489368,0.0,0.002181661564992912,-0.44,-0.06,9.8,21.75,6.5,-44.5625,1744474930.2686484
673,0.003272492347489368,0.01090830782496456,-0.028361600344907856,-0.13,-0.02,9.85,21.0,6.5,-45.375,1744474930.2865582
674,0.00545415391248228,0.011999138607461015,-0.00545415391248228,-0.05,-0.1,9.81,21.0,6.5,-45.375,1744474930.3079114
675,0.004363323129985824,0.007635815477475192,-0.006544984694978736,-0.25,-0.07,9.82,20.6875,6.75,-45.0,1744474930.3290038
676,0.001090830782496456,0.001090830782496456,-0.015271630954950384,-0.23,-0.07,9.82,20.6875,6.75,-45.0,1744474930.3499055
677,0.001090830782496456,0.002181661564992912,-0.04690572364734761,-0.27,-0.01,9.84,20.6875,6.75,-45.0,1744474930.3690286
678,0.001090830782496456,-0.006544984694978736,-0.03381575425739013,-0.13,-0.11,9.84,21.0,6.0625,-45.75,1744474930.388359
679,0.002181661564992912,-0.004363323129985824,-0.025089107997418487,-0.46,-0.05,9.82,21.0,6.0625,-45.75,1744474930.408205
680,0.00545415391248228,0.007635815477475192,-0.020725784867432664,-0.29,0.0,9.82,20.25,7.1875,-45.0,1744474930.4280286
681,-0.003272492347489368,0.01090830782496456,0.032724923474893676,-0.19,-0.09,9.8,20.25,7.1875,-45.0,1744474930.449485
682,-0.00545415391248228,0.017453292519943295,0.03490658503988659,-0.19,-0.13,9.81,20.25,7.1875,-45.0,1744474930.4685416
683,0.011999138607461015,-0.00545415391248228,0.08835729338221293,-0.2,-0.07,9.81,21.0,7.1875,-43.75,1744474930.4877825
684,0.016362461737446838,-0.008726646259971648,0.011999138607461015,0.0,0.04,9.790000000000001,21.0,7.1875,-43.75,1744474930.5098941
685,0.019634954084936207,-0.020725784867432664,0.09272061651219876,-0.02,0.01,9.8,19.5625,7.5625,-44.1875,1744474930.528878
686,0.009817477042468103,-0.00545415391248228,0.04363323129985824,-0.04,-0.05,9.8,19.5625,7.5625,-44.1875,1744474930.548446
687,0.008726646259971648,0.013089969389957472,0.019634954084936207,-0.02,0.0,9.83,19.5625,7.5625,-44.1875,1744474930.5701942
688,0.006544984694978736,0.006544984694978736,0.04581489286485115,0.03,0.0,9.81,19.1875,7.5625,-44.1875,1744474930.5880823
689,0.00545415391248228,0.009817477042468103,0.02945243112740431,-0.12,-0.16,9.84,19.1875,7.5625,-44.1875,1744474930.6086044
690,0.002181661564992912,0.004363323129985824,-0.020725784867432664,-0.24,0.06,9.8,18.875,8.25,-45.0,1744474930.6632886
691,0.00545415391248228,-0.015271630954950384,0.039269908169872414,0.11,-0.01,9.8,18.875,8.25,-45.0,1744474930.668705
692,0.009817477042468103,-0.02181661564992912,0.061086523819801536,0.2,-0.15,9.81,17.375,8.25,-45.375,1744474930.688487
693,0.004363323129985824,-0.015271630954950384,0.04581489286485115,-0.23,0.1,9.8,17.375,8.25,-45.375,1744474930.7086666
694,-0.00545415391248228,0.01090830782496456,0.05672320068981571,0.13,0.23,9.81,17.375,8.5625,-45.0,1744474930.7305074
695,-0.004363323129985824,0.001090830782496456,0.08290313946973066,0.08,-0.15,9.790000000000001,17.375,8.5625,-45.0,1744474930.7487924
696,-0.007635815477475192,0.007635815477475192,0.04036073895236887,-0.33,-0.04,9.81,17.375,8.5625,-45.0,1744474930.7698786
697,-0.006544984694978736,0.013089969389957472,-0.044724062082354694,-0.12,0.05,9.82,17.375,9.75,-44.5625,1744474930.7935617
698,-0.002181661564992912,0.013089969389957472,-0.031634092692397225,0.06,0.07,9.82,17.375,9.75,-44.5625,1744474930.8087962
699,-0.01090830782496456,0.002181661564992912,0.03381575425739013,-0.02,0.12,9.82,17.0625,8.25,-45.375,1744474930.828871
700,-0.00545415391248228,-0.00545415391248228,0.022907446432425576,0.19,-0.11,9.81,17.0625,8.25,-45.375,1744474930.849514
701,-0.008726646259971648,-0.016362461737446838,0.04581489286485115,0.22,-0.14,9.81,17.0625,8.25,-45.375,1744474930.8698673
702,-0.004363323129985824,-0.017453292519943295,0.10144726277217041,0.19,-0.18,9.82,16.6875,9.0,-45.375,1744474930.8896034
703,0.002181661564992912,0.001090830782496456,0.055632369907319255,0.32,-0.16,9.8,16.6875,9.0,-45.375,1744474930.9106462
704,0.0,-0.009817477042468103,0.030543261909900768,0.02,-0.02,9.8,16.25,9.375,-46.5,1744474930.930111
705,0.002181661564992912,-0.016362461737446838,0.006544984694978736,0.26,0.02,9.78,16.25,9.375,-46.5,1744474930.9548984
706,-0.004363323129985824,-0.015271630954950384,0.006544984694978736,0.18,0.0,9.8,16.25,9.375,-46.5,1744474930.9719713
707,-0.002181661564992912,-0.014180800172453928,0.008726646259971648,0.1,0.06,9.81,15.5625,10.5,-48.0625,1744474930.9926674
708,-0.004363323129985824,-0.007635815477475192,0.01090830782496456,-0.13,-0.02,9.81,15.5625,10.5,-48.0625,1744474931.0149806
709,-0.007635815477475192,-0.004363323129985824,0.02399827721492203,0.09,-0.02,9.81,15.6875,10.75,-47.6875,1744474931.0319343
710,0.0,-0.009817477042468103,0.0272707695624114,-0.02,-0.04,9.78,15.6875,10.75,-47.6875,1744474931.0556085
711,-0.001090830782496456,-0.001090830782496456,0.004363323129985824,0.01,0.0,9.83,15.6875,10.75,-47.6875,1744474931.0748858
712,-0.004363323129985824,0.004363323129985824,-0.020725784867432664,0.17,0.0,9.81,15.6875,11.1875,-48.875,1744474931.0965235
713,-0.002181661564992912,-0.004363323129985824,0.001090830782496456,0.16,-0.01,9.82,15.6875,11.1875,-48.875,1744474931.1161768
714,0.003272492347489368,-0.006544984694978736,-0.016362461737446838,-0.02,-0.13,9.82,15.375,10.0625,-48.5,1744474931.1359932
715,0.0,-0.01090830782496456,-0.02399827721492203,0.12,-0.01,9.81,15.375,10.0625,-48.5,1744474931.1573129
716,0.0,-0.003272492347489368,0.02945243112740431,0.1,0.0,9.82,15.375,10.0625,-48.5,1744474931.1733232
717,-0.001090830782496456,-0.004363323129985824,0.06981317007977318,0.01,-0.1,9.790000000000001,16.375,11.1875,-49.6875,1744474931.1963933
718,0.003272492347489368,0.003272492347489368,0.018544123302439753,-0.11,-0.06,9.77,16.375,11.1875,-49.6875,1744474931.2162938
719,0.0,-0.003272492347489368,0.0,-0.1,-0.02,9.8,16.0625,9.75,-48.5,1744474931.2361915
720,0.0,-0.004363323129985824,0.018544123302439753,0.0,-0.02,9.8,16.0625,9.75,-48.5,1744474931.2564795
721,0.003272492347489368,-0.014180800172453928,0.030543261909900768,-0.04,0.0,9.82,15.375,10.75,-51.1875,1744474931.2756357
722,0.001090830782496456,-0.009817477042468103,0.003272492347489368,-0.06,0.02,9.82,15.375,10.75,-51.1875,1744474931.2961552
723,-0.001090830782496456,-0.013089969389957472,-0.017453292519943295,-0.02,0.03,9.83,15.375,10.75,-51.1875,1744474931.317575
724,0.004363323129985824,-0.003272492347489368,-0.05126904677733343,0.03,0.07,9.8,15.6875,10.5,-51.25,1744474931.3341417
725,0.003272492347489368,-0.018544123302439753,-0.007635815477475192,0.06,-0.03,9.790000000000001,15.6875,10.5,-51.25,1744474931.3564441
726,0.004363323129985824,-0.011999138607461015,0.03599741582238305,0.09,-0.04,9.81,15.6875,11.1875,-50.5,1744474931.3757648
727,0.00545415391248228,0.0,0.019634954084936207,0.08,-0.04,9.8,15.6875,11.1875,-50.5,1744474931.3964467
728,0.003272492347489368,-0.00545415391248228,0.037088246604879506,0.07,-0.04,9.8,15.6875,11.1875,-50.5,1744474931.4174294
729,0.0,0.01090830782496456,0.004363323129985824,0.03,-0.05,9.82,15.375,12.0,-51.6875,1744474931.4371517
730,0.002181661564992912,0.00545415391248228,0.011999138607461015,0.02,-0.01,9.82,15.375,12.0,-51.6875,1744474931.4564383
731,0.003272492347489368,0.004363323129985824,0.02399827721492203,0.09,0.0,9.84,15.6875,11.1875,-52.875,1744474931.4749053
732,0.003272492347489368,-0.004363323129985824,0.018544123302439753,0.11,0.03,9.81,15.6875,11.1875,-52.875,1744474931.4972396
733,-0.001090830782496456,0.001090830782496456,-0.037088246604879506,0.14,0.01,9.8,15.6875,11.1875,-52.875,1744474931.5170267
734,0.0,-0.003272492347489368,-0.04799655442984406,0.1,0.01,9.82,15.6875,11.5625,-51.6875,1744474931.5359297
735,-0.001090830782496456,-0.009817477042468103,-0.020725784867432664,0.03,0.0,9.8,15.6875,11.5625,-51.6875,1744474931.5577943
736,-0.001090830782496456,0.004363323129985824,-0.007635815477475192,-0.02,-0.01,9.82,15.375,11.1875,-53.1875,1744474931.5767972
737,-0.00545415391248228,0.014180800172453928,0.0,-0.02,-0.01,9.77,15.375,11.1875,-53.1875,1744474931.598416
738,-0.00545415391248228,0.01090830782496456,0.001090830782496456,-0.01,-0.02,9.81,15.375,11.1875,-53.1875,1744474931.6169958
739,-0.00545415391248228,0.009817477042468103,0.0,-0.01,-0.01,9.84,15.0,11.5625,-51.6875,1744474931.6370254
740,-0.002181661564992912,0.006544984694978736,-0.008726646259971648,-0.02,-0.02,9.77,15.0,11.5625,-51.6875,1744474931.6576912
741,0.0,0.004363323129985824,-0.018544123302439753,0.07,0.03,9.83,14.5625,11.5625,-53.1875,1744474931.676044
742,-0.003272492347489368,0.006544984694978736,-0.06326818538479445,0.07,0.0,9.81,14.5625,11.5625,-53.1875,1744474931.69741
743,0.0,0.003272492347489368,-0.08290313946973066,0.16,0.0,9.82,14.5625,11.5625,-53.1875,1744474931.718542
744,0.001090830782496456,-0.002181661564992912,-0.04254240051736178,0.03,-0.04,9.82,16.0625,10.75,-52.375,1744474931.7365308
745,0.001090830782496456,-0.004363323129985824,-0.001090830782496456,-0.02,-0.02,9.83,16.0625,10.75,-52.375,1744474931.7581763
746,0.001090830782496456,-0.00545415391248228,0.04036073895236887,0.12,-0.05,9.8,15.375,11.5625,-52.875,1744474931.77923
747,0.0,-0.002181661564992912,0.061086523819801536,0.09,-0.03,9.81,15.375,11.5625,-52.875,1744474931.7980413
748,0.0,0.0,0.06435901616729091,0.12,-0.03,9.790000000000001,15.375,11.5625,-52.875,1744474931.8181396
749,-0.003272492347489368,0.0,-0.020725784867432664,0.21,0.02,9.82,15.375,11.1875,-51.1875,1744474931.8399653
750,0.0,-0.009817477042468103,0.03381575425739013,0.16,-0.05,9.81,15.375,11.1875,-51.1875,1744474931.8626652
751,-0.003272492347489368,-0.007635815477475192,-0.05126904677733343,-0.06,0.02,9.82,15.375,10.75,-51.6875,1744474931.8782318
752,-0.003272492347489368,0.004363323129985824,-0.08944812416470939,-0.26,-0.01,9.81,15.375,10.75,-51.6875,1744474931.9023206
753,0.003272492347489368,-0.002181661564992912,-0.038179077387375956,0.04,-0.02,9.81,15.375,10.75,-51.6875,1744474931.918388
754,0.001090830782496456,0.0,-0.01090830782496456,0.15,-0.07,9.8,16.375,11.1875,-51.6875,1744474931.9399347
755,0.001090830782496456,0.002181661564992912,0.019634954084936207,0.23,-0.14,9.790000000000001,16.375,11.1875,-51.6875,1744474931.9600816
756,0.002181661564992912,-0.001090830782496456,0.05345070834232634,0.2,-0.11,9.78,15.0,10.75,-51.25,1744474931.978645
757,0.001090830782496456,0.001090830782496456,0.08072147790473774,0.35000000000000003,-0.05,9.790000000000001,15.0,10.75,-51.25,1744474932.0006964
758,0.004363323129985824,0.002181661564992912,0.0272707695624114,0.46,-0.24,9.790000000000001,15.0,10.75,-51.25,1744474932.0190551
759,0.007635815477475192,-0.00545415391248228,-0.05672320068981571,0.2,-0.02,9.790000000000001,15.6875,9.75,-48.875,1744474932.0398567
760,0.006544984694978736,-0.006544984694978736,-0.04363323129985824,0.0,-0.04,9.81,15.6875,9.75,-48.875,1744474932.0617557
761,0.006544984694978736,0.01090830782496456,-0.11344640137963143,0.0,-0.07,9.78,15.6875,10.75,-49.25,1744474932.079141
762,0.001090830782496456,-0.001090830782496456,-0.032724923474893676,0.19,0.01,9.8,15.6875,10.75,-49.25,1744474932.103287
763,0.0,0.03490658503988659,0.016362461737446838,-0.07,-0.06,9.83,15.6875,10.75,-49.25,1744474932.1202376
764,-0.001090830782496456,0.026179938779914945,0.002181661564992912,0.0,-0.07,9.81,16.75,10.5,-47.6875,1744474932.1406984
765,0.004363323129985824,0.002181661564992912,0.022907446432425576,-0.34,0.0,9.81,16.75,10.5,-47.6875,1744474932.163474
766,0.011999138607461015,0.009817477042468103,-0.06872233929727672,-0.14,-0.14,9.81,16.75,9.75,-46.1875,1744474932.182263
767,0.011999138607461015,0.019634954084936207,-0.09926560120717749,-0.18,0.0,9.8,16.75,9.75,-46.1875,1744474932.2051497
768,0.006544984694978736,0.00545415391248228,-0.08399397025222712,0.0,0.03,9.81,16.75,9.75,-46.1875,1744474932.2220633
769,0.004363323129985824,-0.003272492347489368,-0.055632369907319255,0.22,0.0,9.8,17.875,9.75,-45.75,1744474932.2459357
770,0.006544984694978736,-0.006544984694978736,-0.006544984694978736,0.21,-0.16,9.790000000000001,17.875,9.75,-45.75,1744474932.265536
771,0.004363323129985824,0.00545415391248228,0.0,0.15,-0.19,9.82,17.875,9.75,-46.5,1744474932.2850091
772,0.008726646259971648,-0.004363323129985824,0.02945243112740431,0.11,-0.08,9.8,17.875,9.75,-46.5,1744474932.3061361
773,-0.002181661564992912,0.00545415391248228,-0.0272707695624114,0.0,0.04,9.84,17.875,9.75,-46.5,1744474932.3224783
774,-0.01090830782496456,0.009817477042468103,-0.05672320068981571,-0.14,0.1,9.81,17.5,8.25,-46.1875,1744474932.3451657
775,-0.01090830782496456,0.006544984694978736,-0.028361600344907856,-0.07,-0.02,9.84,17.5,8.25,-46.1875,1744474932.3660212
776,0.004363323129985824,0.0,-0.03490658503988659,-0.09,-0.04,9.83,18.25,8.5625,-45.375,1744474932.3831663
777,-0.004363323129985824,-0.009817477042468103,-0.05126904677733343,-0.1,0.15,9.790000000000001,18.25,8.5625,-45.375,1744474932.405474
778,-0.01090830782496456,0.007635815477475192,-0.09708393964218458,-0.21,0.12,9.84,18.5625,9.0,-45.375,1744474932.4246492
779,-0.001090830782496456,-0.014180800172453928,-0.050178215994836975,-0.33,-0.19,9.81,18.5625,9.0,-45.375,1744474932.4453819
780,-0.004363323129985824,-0.006544984694978736,0.017453292519943295,-0.53,-0.01,9.84,18.5625,9.0,-45.375,1744474932.4655194
781,-0.001090830782496456,-0.014180800172453928,0.002181661564992912,-0.13,-0.11,9.81,19.25,8.25,-43.75,1744474932.4861615
782,-0.004363323129985824,-0.003272492347489368,0.009817477042468103,-0.18,-0.06,9.8,19.25,8.25,-43.75,1744474932.5054562
783,-0.007635815477475192,-0.001090830782496456,0.038179077387375956,-0.14,-0.08,9.84,19.25,8.25,-45.375,1744474932.5240333
784,-0.002181661564992912,-0.003272492347489368,0.04036073895236887,-0.24,0.04,9.8,19.25,8.25,-45.375,1744474932.5455608
785,0.0,-0.006544984694978736,-0.04799655442984406,-0.51,0.04,9.84,19.25,8.25,-45.375,1744474932.565645
786,-0.002181661564992912,-0.002181661564992912,-0.06872233929727672,-0.2,0.01,9.81,19.5625,7.1875,-45.375,1744474932.5845273
787,-0.004363323129985824,-0.009817477042468103,-0.04145156973486533,-0.17,0.03,9.83,19.5625,7.1875,-45.375,1744474932.605759
788,-0.002181661564992912,-0.002181661564992912,0.006544984694978736,-0.18,0.0,9.84,20.6875,8.0,-45.0,1744474932.624349
789,0.001090830782496456,-0.003272492347489368,0.030543261909900768,0.0,-0.06,9.81,20.6875,8.0,-45.0,1744474932.6463373
790,-0.001090830782496456,-0.004363323129985824,0.0272707695624114,-0.06,-0.01,9.790000000000001,20.6875,8.0,-45.0,1744474932.6661003
791,0.0,-0.003272492347489368,0.00545415391248228,-0.13,-0.07,9.83,20.0,7.5625,-44.1875,1744474932.6855378
792,0.006544984694978736,-0.00545415391248228,-0.028361600344907856,-0.25,-0.1,9.81,20.0,7.5625,-44.1875,1744474932.7071276
793,-0.001090830782496456,-0.003272492347489368,-0.04908738521234052,-0.18,-0.08,9.81,20.6875,7.1875,-45.0,1744474932.7247496
794,0.002181661564992912,-0.006544984694978736,-0.05235987755982989,-0.24,-0.07,9.790000000000001,20.6875,7.1875,-45.0,1744474932.7465942
795,0.0,-0.004363323129985824,-0.05999569303730508,-0.11,-0.02,9.82,20.6875,7.1875,-45.0,1744474932.767602
796,-0.002181661564992912,0.001090830782496456,-0.06654067773228381,-0.13,-0.03,9.83,21.0,7.5625,-44.5625,1744474932.7852716
797,-0.003272492347489368,0.002181661564992912,-0.018544123302439753,-0.28,-0.1,9.81,21.0,7.5625,-44.5625,1744474932.8061569
798,-0.001090830782496456,-0.007635815477475192,0.006544984694978736,-0.23,-0.09,9.85,21.375,7.5625,-45.0,1744474932.8267367
799,0.001090830782496456,-0.001090830782496456,0.009817477042468103,-0.18,-0.1,9.8,21.375,7.5625,-45.0,1744474932.846425
800,0.002181661564992912,0.002181661564992912,0.007635815477475192,-0.06,-0.04,9.82,21.375,7.5625,-45.0,1744474932.866506
801,0.0,-0.003272492347489368,0.00545415391248228,-0.02,-0.04,9.82,20.6875,7.1875,-45.0,1744474932.8904219
802,0.0,0.0,0.007635815477475192,-0.02,-0.05,9.8,20.6875,7.1875,-45.0,1744474932.9062412
803,0.002181661564992912,0.002181661564992912,0.00545415391248228,-0.04,-0.06,9.81,21.0,6.5,-45.0,1744474932.9267104
804,0.002181661564992912,-0.003272492347489368,0.002181661564992912,-0.05,-0.07,9.82,21.0,6.5,-45.0,1744474932.9464624
805,0.001090830782496456,-0.003272492347489368,0.002181661564992912,-0.02,-0.07,9.84,21.0,6.5,-45.0,1744474932.9664736
806,-0.002181661564992912,-0.006544984694978736,0.001090830782496456,-0.03,-0.08,9.8,21.0,7.1875,-44.5625,1744474932.9867396
807,0.001090830782496456,-0.002181661564992912,0.001090830782496456,-0.03,-0.05,9.8,21.0,7.1875,-44.5625,1744474933.0066686
808,0.001090830782496456,0.003272492347489368,-0.001090830782496456,-0.03,-0.05,9.82,21.0,6.75,-44.5625,1744474933.029173
809,0.001090830782496456,0.001090830782496456,0.0,-0.02,-0.05,9.81,21.0,6.75,-44.5625,1744474933.0488873
810,0.001090830782496456,0.002181661564992912,0.002181661564992912,-0.03,-0.05,9.83,21.0,6.75,-44.5625,1744474933.0670178
811,0.001090830782496456,-0.002181661564992912,0.002181661564992912,-0.02,-0.03,9.81,21.0,6.0625,-45.75,1744474933.0912802
812,0.001090830782496456,-0.003272492347489368,0.001090830782496456,-0.03,-0.03,9.83,21.0,6.0625,-45.75,1744474933.1097252
813,0.002181661564992912,-0.00545415391248228,0.00545415391248228,-0.06,-0.05,9.81,20.6875,6.75,-45.0,1744474933.1281018
814,0.003272492347489368,-0.001090830782496456,0.004363323129985824,-0.02,-0.04,9.790000000000001,20.6875,6.75,-45.0,1744474933.1485517
815,0.004363323129985824,-0.004363323129985824,0.011999138607461015,-0.05,-0.06,9.82,20.6875,6.75,-45.0,1744474933.1682498
816,0.002181661564992912,-0.004363323129985824,0.03490658503988659,-0.08,-0.05,9.81,20.6875,6.75,-44.5625,1744474933.187891
817,0.0,-0.00545415391248228,0.10144726277217041,-0.04,-0.03,9.78,20.6875,6.75,-44.5625,1744474933.208736
818,0.0,0.0,0.05999569303730508,-0.02,-0.03,9.82,21.75,6.75,-45.0,1744474933.2322617
819,0.002181661564992912,0.001090830782496456,0.039269908169872414,-0.08,-0.05,9.82,21.75,6.75,-45.0,1744474933.249256
820,0.0,-0.002181661564992912,-0.004363323129985824,-0.23,-0.03,9.84,21.75,6.75,-45.0,1744474933.268831
821,0.001090830782496456,0.0,-0.05235987755982989,-0.11,-0.03,9.790000000000001,21.75,6.5,-44.5625,1744474933.2915807
822,0.002181661564992912,-0.00545415391248228,-0.009817477042468103,-0.07,-0.05,9.8,21.75,6.5,-44.5625,1744474933.3115265
823,0.0,-0.001090830782496456,-0.01090830782496456,-0.29,-0.08,9.82,20.6875,7.1875,-44.5625,1744474933.331749
824,0.001090830782496456,0.0,0.04908738521234052,-0.39,-0.07,9.82,20.6875,7.1875,-44.5625,1744474933.3525186
825,-0.001090830782496456,0.006544984694978736,0.009817477042468103,-0.42,0.06,9.83,20.6875,7.1875,-44.5625,1744474933.3696346
826,0.0,0.0,0.037088246604879506,-0.27,-0.07,9.81,20.6875,6.75,-44.1875,1744474933.3902113
827,0.0,0.002181661564992912,0.038179077387375956,0.09,-0.13,9.83,20.6875,6.75,-44.1875,1744474933.4134176
828,-0.001090830782496456,0.008726646259971648,0.044724062082354694,0.05,-0.09,9.8,21.0,8.0,-45.375,1744474933.4299943
829,0.003272492347489368,0.002181661564992912,0.05126904677733343,0.09,-0.05,9.82,21.0,8.0,-45.375,1744474933.452072
830,0.002181661564992912,-0.001090830782496456,0.04581489286485115,0.04,-0.2,9.82,21.0,8.0,-45.375,1744474933.4696097
831,0.004363323129985824,0.007635815477475192,-0.014180800172453928,-0.12,-0.16,9.84,20.6875,6.75,-44.5625,1744474933.491478
832,0.004363323129985824,-0.004363323129985824,0.007635815477475192,-0.19,-0.03,9.81,20.6875,6.75,-44.5625,1744474933.5133219
833,0.011999138607461015,-0.01090830782496456,0.11017390903214205,-0.1,0.0,9.83,20.25,8.0,-45.375,1744474933.5327106
834,0.006544984694978736,-0.01090830782496456,0.07744898555724837,-0.11,-0.02,9.8,20.25,8.0,-45.375,1744474933.5537791
835,0.00545415391248228,-0.002181661564992912,0.0545415391248228,-0.13,-0.01,9.81,20.6875,7.5625,-43.875,1744474933.573168
836,0.00545415391248228,0.007635815477475192,0.06872233929727672,-0.12,-0.07,9.790000000000001,20.6875,7.5625,-43.875,1744474933.5976048
837,0.0,0.008726646259971648,0.030543261909900768,-0.38,-0.08,9.8,20.6875,7.5625,-43.875,1744474933.6144426
838,0.002181661564992912,0.011999138607461015,0.02399827721492203,0.03,-0.05,9.83,19.5625,8.0,-44.5625,1744474933.6331902
839,0.002181661564992912,0.004363323129985824,-0.025089107997418487,-0.09,0.09,9.84,19.5625,8.0,-44.5625,1744474933.6539476
840,0.003272492347489368,0.007635815477475192,-0.009817477042468103,0.0,0.06,9.81,20.0,7.1875,-43.75,1744474933.6746225
841,0.004363323129985824,0.002181661564992912,0.01090830782496456,-0.19,0.07,9.790000000000001,20.0,7.1875,-43.75,1744474933.6945734
842,0.003272492347489368,-0.00545415391248228,0.030543261909900768,-0.16,0.01,9.83,20.0,7.1875,-43.75,1744474933.7144902
843,0.002181661564992912,0.003272492347489368,-0.001090830782496456,-0.31,-0.03,9.83,19.5625,8.25,-45.375,1744474933.734564
844,0.013089969389957472,-0.00545415391248228,0.031634092692397225,-0.01,-0.06,9.81,19.5625,8.25,-45.375,1744474933.7618828
845,0.011999138607461015,-0.01090830782496456,0.05672320068981571,0.1,0.06,9.8,18.875,8.5625,-45.0,1744474933.7787232
846,0.004363323129985824,-0.008726646259971648,0.039269908169872414,0.06,-0.01,9.8,18.875,8.5625,-45.0,1744474933.8001118
847,0.001090830782496456,-0.002181661564992912,0.05781403147231216,-0.24,-0.04,9.8,18.875,8.5625,-45.0,1744474933.8204734
848,0.0,-0.004363323129985824,0.037088246604879506,0.43,-0.09,9.83,18.5,8.0,-45.375,1744474933.8387158
849,-0.006544984694978736,0.007635815477475192,0.05672320068981571,-0.17,-0.08,9.81,18.5,8.0,-45.375,1744474933.8617332
850,-0.004363323129985824,-0.003272492347489368,0.03599741582238305,0.0,0.04,9.81,19.1875,9.0,-44.5625,1744474933.8796732
851,-0.011999138607461015,0.013089969389957472,-0.0272707695624114,-0.11,0.08,9.8,19.1875,9.0,-44.5625,1744474933.9009964
852,-0.01090830782496456,0.016362461737446838,0.008726646259971648,-0.12,-0.03,9.81,19.1875,9.0,-44.5625,1744474933.9205992
853,-0.003272492347489368,0.002181661564992912,0.03599741582238305,0.04,0.01,9.790000000000001,18.1875,8.5625,-45.75,1744474933.9431295
854,-0.001090830782496456,-0.001090830782496456,0.06763150851478027,0.04,0.03,9.8,18.1875,8.5625,-45.75,1744474933.9627852
855,-0.006544984694978736,0.002181661564992912,0.050178215994836975,-0.18,-0.07,9.83,17.75,9.75,-46.5,1744474933.9819443
856,-0.00545415391248228,-0.006544984694978736,0.04690572364734761,-0.06,-0.1,9.82,17.75,9.75,-46.5,1744474934.0030506
857,-0.008726646259971648,-0.003272492347489368,0.055632369907319255,-0.09,-0.16,9.81,17.75,9.75,-46.5,1744474934.0208466
858,0.0,-0.006544984694978736,0.037088246604879506,0.06,-0.1,9.84,16.6875,9.75,-47.0,1744474934.0423036
859,-0.002181661564992912,-0.006544984694978736,0.017453292519943295,-0.13,-0.09,9.83,16.6875,9.75,-47.0,1744474934.0635777
860,0.002181661564992912,-0.019634954084936207,-0.02945243112740431,0.03,-0.03,9.83,16.6875,10.0625,-46.5,1744474934.0809898
861,0.0,-0.02181661564992912,-0.06763150851478027,-0.13,0.04,9.81,16.6875,10.0625,-46.5,1744474934.1027815
862,0.001090830782496456,-0.020725784867432664,-0.018544123302439753,-0.19,-0.03,9.78,16.6875,10.0625,-46.5,1744474934.1213608
863,0.0,-0.008726646259971648,-0.08726646259971647,-0.13,0.09,9.82,16.6875,9.75,-45.75,1744474934.1424952
864,-0.006544984694978736,-0.008726646259971648,-0.05781403147231216,-0.03,0.12,9.81,16.6875,9.75,-45.75,1744474934.1636987
865,-0.007635815477475192,-0.006544984694978736,-0.018544123302439753,0.09,0.01,9.790000000000001,16.6875,10.5,-47.375,1744474934.1842096
866,-0.008726646259971648,-0.00545415391248228,0.07963064712224129,-0.14,-0.1,9.78,16.6875,10.5,-47.375,1744474934.2031565
867,-0.001090830782496456,-0.017453292519943295,0.07417649320975901,0.21,-0.12,9.84,16.25,10.0625,-47.6875,1744474934.2220426
868,0.00545415391248228,-0.013089969389957472,0.038179077387375956,0.09,-0.01,9.81,16.25,10.0625,-47.6875,1744474934.2431428
869,0.004363323129985824,-0.003272492347489368,0.03490658503988659,0.06,-0.07,9.82,16.25,10.0625,-47.6875,1744474934.2647066
870,0.008726646259971648,-0.003272492347489368,0.03599741582238305,0.46,-0.05,9.78,16.25,10.5,-48.5,1744474934.2851217
871,0.00545415391248228,-0.003272492347489368,0.05999569303730508,0.05,0.0,9.8,16.25,10.5,-48.5,1744474934.3039246
872,0.003272492347489368,-0.006544984694978736,0.08726646259971647,0.03,-0.04,9.81,16.25,10.75,-50.5,1744474934.3235092
873,0.0,0.002181661564992912,0.04908738521234052,0.23,-0.1,9.78,16.25,10.75,-50.5,1744474934.3481855
874,0.004363323129985824,-0.004363323129985824,0.011999138607461015,0.23,0.0,9.8,16.25,10.75,-50.5,1744474934.3655758
875,-0.002181661564992912,0.003272492347489368,0.019634954084936207,0.11,0.02,9.8,14.875,10.75,-50.875,1744474934.3875985
876,0.002181661564992912,-0.006544984694978736,0.025089107997418487,0.0,0.01,9.81,14.875,10.75,-50.875,1744474934.4085445
877,0.003272492347489368,0.003272492347489368,0.011999138607461015,0.09,0.0,9.790000000000001,16.0,11.5625,-52.5,1744474934.427454
878,0.0,-0.002181661564992912,0.001090830782496456,0.12,0.0,9.790000000000001,16.0,11.5625,-52.5,1744474934.4477632
879,0.0,-0.006544984694978736,-0.001090830782496456,0.08,-0.04,9.81,15.25,11.1875,-52.5,1744474934.4709165
880,0.003272492347489368,-0.001090830782496456,-0.004363323129985824,0.08,-0.01,9.77,15.25,11.1875,-52.5,1744474934.4928384
881,0.002181661564992912,0.003272492347489368,0.001090830782496456,0.07,-0.02,9.81,15.25,11.1875,-52.5,1744474934.5122313
882,0.002181661564992912,-0.003272492347489368,0.006544984694978736,0.01,-0.01,9.81,16.0,12.0,-51.6875,1744474934.5326152
883,-0.001090830782496456,-0.001090830782496456,0.003272492347489368,-0.01,-0.02,9.81,16.0,12.0,-51.6875,1744474934.5522993
884,-0.001090830782496456,-0.002181661564992912,0.002181661564992912,-0.02,-0.02,9.8,15.25,11.1875,-53.1875,1744474934.5716186
885,0.002181661564992912,-0.001090830782496456,-0.004363323129985824,-0.02,0.0,9.8,15.25,11.1875,-53.1875,1744474934.5938978
886,-0.002181661564992912,-0.001090830782496456,0.001090830782496456,-0.02,-0.02,9.83,15.25,11.1875,-53.1875,1744474934.6124473
887,0.0,0.001090830782496456,0.0,-0.02,0.0,9.8,15.5625,11.1875,-51.25,1744474934.632501
888,0.001090830782496456,0.0,0.0,-0.02,0.0,9.83,15.5625,11.1875,-51.25,1744474934.6539726
889,0.0,0.0,0.001090830782496456,-0.03,0.0,9.84,15.25,11.1875,-52.875,1744474934.6728892
890,-0.002181661564992912,0.004363323129985824,0.0,-0.02,-0.01,9.790000000000001,15.25,11.1875,-52.875,1744474934.694648
891,0.0,-0.003272492347489368,0.0,-0.01,0.0,9.81,15.25,11.1875,-52.875,1744474934.715073
892,0.0,-0.004363323129985824,0.001090830782496456,-0.02,-0.03,9.83,15.25,11.1875,-51.6875,1744474934.7339234
893,-0.002181661564992912,0.0,0.001090830782496456,-0.01,0.0,9.81,15.25,11.1875,-51.6875,1744474934.7550592
894,0.0,0.001090830782496456,0.001090830782496456,-0.02,-0.02,9.8,15.5625,10.75,-52.875,1744474934.776471
895,-0.001090830782496456,-0.001090830782496456,0.0,-0.02,0.0,9.8,15.5625,10.75,-52.875,1744474934.795143
896,-0.001090830782496456,0.0,-0.002181661564992912,-0.03,-0.02,9.83,15.5625,10.75,-52.875,1744474934.8147967
897,-0.001090830782496456,0.004363323129985824,-0.028361600344907856,0.15,0.0,9.8,15.25,11.5625,-52.5,1744474934.8375309
898,0.0,0.001090830782496456,-0.07963064712224129,0.26,-0.03,9.790000000000001,15.25,11.5625,-52.5,1744474934.8574178
899,-0.001090830782496456,-0.004363323129985824,-0.008726646259971648,0.24,0.02,9.83,15.25,11.5625,-51.25,1744474934.8770478
900,0.001090830782496456,-0.007635815477475192,-0.030543261909900768,0.36,-0.02,9.78,15.25,11.5625,-51.25,1744474934.8983917
901,-0.001090830782496456,-0.013089969389957472,0.031634092692397225,0.28,-0.04,9.81,15.25,11.5625,-51.25,1744474934.9152405
902,0.002181661564992912,-0.007635815477475192,0.03490658503988659,0.27,0.02,9.81,15.25,12.25,-51.6875,1744474934.93529
903,-0.002181661564992912,-0.008726646259971648,-0.001090830782496456,0.04,0.0,9.8,15.25,12.25,-51.6875,1744474934.958568
904,-0.004363323129985824,-0.011999138607461015,0.061086523819801536,0.12,0.03,9.83,14.875,11.5625,-51.25,1744474934.9754152
905,-0.002181661564992912,-0.013089969389957472,0.04145156973486533,-0.13,0.03,9.790000000000001,14.875,11.5625,-51.25,1744474934.998765
906,-0.009817477042468103,-0.003272492347489368,0.02945243112740431,0.15,0.07,9.81,14.875,11.5625,-51.25,1744474935.015785
907,-0.008726646259971648,0.0,0.037088246604879506,0.09,0.0,9.81,15.25,10.75,-50.875,1744474935.0357895
908,-0.003272492347489368,-0.003272492347489368,0.009817477042468103,0.03,-0.14,9.81,15.25,10.75,-50.875,1744474935.0606139
909,0.0,0.006544984694978736,-0.011999138607461015,-0.1,-0.12,9.81,14.875,11.1875,-50.0625,1744474935.079757
910,0.00545415391248228,0.015271630954950384,-0.039269908169872414,0.09,0.04,9.8,14.875,11.1875,-50.0625,1744474935.100454
911,0.00545415391248228,0.002181661564992912,0.0272707695624114,-0.09,0.07,9.82,14.875,11.1875,-50.0625,1744474935.1189485
912,0.0,-0.001090830782496456,0.016362461737446838,0.14,-0.24,9.790000000000001,14.875,10.75,-48.875,1744474935.139839
913,0.008726646259971648,-0.009817477042468103,0.04254240051736178,0.09,-0.03,9.81,14.875,10.75,-48.875,1744474935.1609106
914,0.004363323129985824,-0.002181661564992912,0.050178215994836975,0.06,0.07,9.84,16.25,10.0625,-48.1875,1744474935.1783564
915,0.011999138607461015,0.004363323129985824,0.02399827721492203,0.22,0.02,9.790000000000001,16.25,10.0625,-48.1875,1744474935.1998663
916,0.002181661564992912,0.013089969389957472,0.0545415391248228,0.17,-0.03,9.83,16.25,10.0625,-48.1875,1744474935.2188976
917,0.00545415391248228,0.017453292519943295,0.07526732399225546,-0.01,0.02,9.8,16.25,9.0,-48.5,1744474935.2428088
918,-0.001090830782496456,-0.015271630954950384,0.13199052468207118,0.09,-0.01,9.81,16.25,9.0,-48.5,1744474935.2617643
919,0.008726646259971648,-0.04690572364734761,0.14508049407202864,0.19,0.03,9.8,16.6875,9.375,-46.5625,1744474935.2823424
920,0.01090830782496456,-0.011999138607461015,0.09490227807719166,-0.32,-0.06,9.81,16.6875,9.375,-46.5625,1744474935.3027654
921,0.01090830782496456,0.002181661564992912,0.0545415391248228,-0.35000000000000003,-0.1,9.85,17.75,8.0,-45.0,1744474935.3210235
922,0.011999138607461015,0.003272492347489368,-0.019634954084936207,-0.01,-0.02,9.81,17.75,8.0,-45.0,1744474935.342662
923,0.017453292519943295,-0.02181661564992912,0.001090830782496456,-0.13,0.17,9.82,17.75,8.0,-45.0,1744474935.3623848
924,0.011999138607461015,-0.02945243112740431,0.061086523819801536,-0.11,0.0,9.8,18.1875,8.25,-47.0,1744474935.3810842
925,0.011999138607461015,-0.001090830782496456,0.030543261909900768,-0.17,0.0,9.82,18.1875,8.25,-47.0,1744474935.4020605
926,0.002181661564992912,-0.013089969389957472,0.06544984694978735,-0.08,-0.13,9.82,18.5,7.5625,-44.5625,1744474935.4214334
927,0.00545415391248228,-0.013089969389957472,0.006544984694978736,-0.09,0.02,9.78,18.5,7.5625,-44.5625,1744474935.442346
928,-0.006544984694978736,0.004363323129985824,0.028361600344907856,-0.08,-0.06,9.8,18.5,7.5625,-44.5625,1744474935.4624665
929,-0.001090830782496456,-0.001090830782496456,-0.009817477042468103,-0.01,-0.21,9.81,18.5,7.1875,-45.0,1744474935.4825869
930,0.002181661564992912,0.013089969389957472,-0.07526732399225546,-0.06,-0.14,9.82,18.5,7.1875,-45.0,1744474935.502459
931,-0.00545415391248228,0.004363323129985824,-0.08072147790473774,0.0,-0.02,9.82,18.875,7.5625,-45.375,1744474935.5239818
932,0.004363323129985824,0.011999138607461015,-0.05345070834232634,-0.19,-0.04,9.8,18.875,7.5625,-45.375,1744474935.5425937
933,0.002181661564992912,0.008726646259971648,-0.06654067773228381,0.12,-0.03,9.82,18.875,7.5625,-45.375,1744474935.5627246
934,0.002181661564992912,-0.019634954084936207,-0.04363323129985824,0.01,-0.15,9.82,19.1875,7.1875,-45.375,1744474935.583077
935,-0.003272492347489368,-0.019634954084936207,-0.08072147790473774,-0.04,0.11,9.84,19.1875,7.1875,-45.375,1744474935.6026125
936,-0.009817477042468103,-0.017453292519943295,-0.044724062082354694,-0.08,0.12,9.84,19.1875,6.5,-45.375,1744474935.623016
937,-0.003272492347489368,-0.028361600344907856,0.028361600344907856,-0.05,0.11,9.83,19.1875,6.5,-45.375,1744474935.6455457
938,0.002181661564992912,-0.018544123302439753,-0.007635815477475192,-0.02,0.02,9.82,19.1875,6.5,-45.375,1744474935.6628249
939,0.001090830782496456,-0.015271630954950384,0.06544984694978735,-0.18,-0.26,9.81,20.0,7.1875,-45.0,1744474935.6837742
940,-0.003272492347489368,-0.003272492347489368,0.013089969389957472,-0.07,0.12,9.83,20.0,7.1875,-45.0,1744474935.709175
941,-0.002181661564992912,-0.013089969389957472,-0.008726646259971648,0.05,0.04,9.790000000000001,20.0,6.5,-45.0,1744474935.7270596
942,-0.00545415391248228,-0.014180800172453928,-0.01090830782496456,0.1,0.07,9.8,20.0,6.5,-45.0,1744474935.7478638
943,-0.003272492347489368,-0.009817477042468103,-0.1341721862470641,-0.12,-0.04,9.84,20.0,6.5,-45.0,1744474935.76658
944,-0.003272492347489368,-0.008726646259971648,-0.10144726277217041,-0.22,0.08,9.82,19.5625,5.75,-46.1875,1744474935.787857
945,0.0,-0.011999138607461015,-0.013089969389957472,-0.33,-0.02,9.8,19.5625,5.75,-46.1875,1744474935.8088994
946,0.0,-0.009817477042468103,0.04690572364734761,-0.2,-0.08,9.84,19.1875,5.375,-45.375,1744474935.8274221
947,0.00545415391248228,-0.003272492347489368,0.028361600344907856,-0.01,-0.02,9.77,19.1875,5.375,-45.375,1744474935.8486912
948,-0.001090830782496456,0.002181661564992912,-0.004363323129985824,-0.03,-0.02,9.81,19.1875,5.375,-45.375,1744474935.8658643
949,-0.003272492347489368,-0.00545415391248228,-0.05235987755982989,0.07,-0.03,9.81,20.0,5.75,-45.0,1744474935.8886914
950,-0.001090830782496456,0.002181661564992912,-0.33597588100890846,0.31,0.27,9.84,20.0,5.75,-45.0,1744474935.909618
951,0.001090830782496456,0.006544984694978736,-0.12762720155208535,-0.22,0.08,9.84,20.25,6.0625,-45.375,1744474935.9265532
952,-0.003272492347489368,0.009817477042468103,-0.04908738521234052,-0.12,0.04,9.8,20.25,6.0625,-45.375,1744474935.95051
953,-0.002181661564992912,0.006544984694978736,0.018544123302439753,-0.02,0.06,9.84,20.25,6.0625,-45.375,1744474935.9663098
954,-0.003272492347489368,-0.007635815477475192,0.028361600344907856,0.09,-0.01,9.8,20.6875,5.75,-45.75,1744474935.9912462
955,0.0,-0.016362461737446838,0.06763150851478027,0.08,0.0,9.8,20.6875,5.75,-45.75,1744474936.0150366
956,-0.001090830782496456,0.0,0.03381575425739013,-0.05,-0.01,9.82,20.25,5.375,-45.75,1744474936.028608
957,0.0,0.004363323129985824,0.0545415391248228,-0.2,-0.03,9.81,20.25,5.375,-45.75,1744474936.0506606
958,-0.001090830782496456,0.020725784867432664,-0.06872233929727672,-0.1,0.01,9.81,20.25,5.375,-45.75,1744474936.0684547
959,-0.002181661564992912,-0.003272492347489368,-0.0818123086872342,-0.1,0.02,9.81,19.1875,6.0625,-46.5625,1744474936.0906177
960,-0.002181661564992912,-0.007635815477475192,-0.04254240051736178,-0.04,0.06,9.81,19.1875,6.0625,-46.5625,1744474936.1113563
961,0.0,-0.008726646259971648,0.06981317007977318,0.02,0.05,9.790000000000001,20.25,5.375,-45.75,1744474936.1294343
962,-0.002181661564992912,0.004363323129985824,0.018544123302439753,0.0,0.04,9.82,20.25,5.375,-45.75,1744474936.1520314
963,0.0,-0.002181661564992912,-0.03599741582238305,-0.1,-0.04,9.83,19.5625,5.75,-45.75,1744474936.1737008
964,0.002181661564992912,-0.004363323129985824,-0.04254240051736178,-0.06,0.0,9.790000000000001,19.5625,5.75,-45.75,1744474936.1919296
965,0.004363323129985824,-0.002181661564992912,-0.003272492347489368,0.0,0.02,9.81,19.5625,5.75,-45.75,1744474936.2125204
966,0.007635815477475192,-0.003272492347489368,-0.003272492347489368,-0.01,0.0,9.83,20.25,5.75,-45.75,1744474936.234346
967,0.00545415391248228,-0.007635815477475192,0.004363323129985824,0.0,0.01,9.81,20.25,5.75,-45.75,1744474936.2521377
968,0.004363323129985824,-0.011999138607461015,0.003272492347489368,0.0,0.0,9.83,20.25,6.0625,-45.375,1744474936.2743661
969,0.004363323129985824,-0.014180800172453928,0.0,0.01,0.0,9.8,20.25,6.0625,-45.375,1744474936.2952607
970,0.002181661564992912,-0.01090830782496456,-0.02181661564992912,-0.01,0.0,9.8,20.25,6.0625,-45.375,1744474936.3126223
971,0.0,-0.002181661564992912,-0.04581489286485115,-0.18,0.0,9.81,20.25,5.375,-46.1875,1744474936.3327293
972,0.0,0.008726646259971648,0.032724923474893676,-0.36,0.0,9.83,20.25,5.375,-46.1875,1744474936.3585496
973,0.001090830782496456,0.016362461737446838,0.02181661564992912,-0.16,-0.05,9.81,20.6875,6.0625,-46.1875,1744474936.3751552
974,0.001090830782496456,0.013089969389957472,-0.0272707695624114,-0.01,0.05,9.81,20.6875,6.0625,-46.1875,1744474936.3937225
975,0.003272492347489368,-0.00545415391248228,0.031634092692397225,-0.19,0.05,9.81,20.6875,6.0625,-46.1875,1744474936.4137886
976,0.001090830782496456,-0.007635815477475192,0.04363323129985824,-0.3,0.01,9.81,20.6875,5.75,-45.75,1744474936.4337838
977,0.0,0.008726646259971648,-0.06872233929727672,-0.14,0.02,9.8,20.6875,5.75,-45.75,1744474936.454775
978,0.003272492347489368,0.002181661564992912,-0.05126904677733343,0.09,0.09,9.82,20.25,5.375,-45.375,1744474936.4738421
979,0.0,-0.009817477042468103,0.032724923474893676,-0.13,0.02,9.81,20.25,5.375,-45.375,1744474936.495573
980,0.00545415391248228,0.0,0.008726646259971648,-0.28,-0.15,9.85,20.25,5.375,-45.375,1744474936.5157292
981,0.004363323129985824,0.015271630954950384,-0.06435901616729091,-0.13,0.04,9.83,19.5625,6.0625,-46.1875,1744474936.5355113
982,0.003272492347489368,0.002181661564992912,-0.011999138607461015,-0.05,-0.15,9.790000000000001,19.5625,6.0625,-46.1875,1744474936.5569296
983,0.008726646259971648,-0.004363323129985824,-0.018544123302439753,0.17,0.0,9.82,19.5625,6.0625,-44.5625,1744474936.5787375
984,0.01090830782496456,-0.00545415391248228,0.002181661564992912,-0.02,0.23,9.790000000000001,19.5625,6.0625,-44.5625,1744474936.596401
985,0.003272492347489368,0.014180800172453928,0.09926560120717749,-0.2,-0.01,9.81,19.5625,6.0625,-44.5625,1744474936.6162572
986,0.007635815477475192,0.025089107997418487,0.10144726277217041,-0.03,-0.1,9.790000000000001,18.875,6.75,-46.1875,1744474936.639532
987,0.006544984694978736,0.018544123302439753,0.07090400086226964,-0.11,-0.07,9.82,18.875,6.75,-46.1875,1744474936.6599905
988,0.015271630954950384,-0.004363323129985824,0.13744467859455345,0.11,-0.11,9.82,18.875,7.1875,-44.1875,1744474936.6787694
989,0.004363323129985824,0.0,0.06544984694978735,-0.3,0.0,9.81,18.875,7.1875,-44.1875,1744474936.7008662
990,0.003272492347489368,0.003272492347489368,0.038179077387375956,0.01,-0.12,9.82,19.5625,6.75,-45.0,1744474936.7187345
991,0.004363323129985824,-0.001090830782496456,0.00545415391248228,-0.07,-0.06,9.8,19.5625,6.75,-45.0,1744474936.7401466
992,0.006544984694978736,-0.022907446432425576,0.07090400086226964,0.21,0.22,9.78,19.5625,6.75,-45.0,1744474936.7602222
