Packet number,Gyroscope X (deg/s),Gyroscope Y (deg/s),Gyroscope Z (deg/s),Accelerometer X (g),Accelerometer Y (g),Accelerometer Z (g),Magnetometer X (G),Magnetometer Y (G),Magnetometer Z (G),Timestamp
1,0.007635815,0.030543262,-0.031634093,0.41,0.17,9.35,0,0,0,1743569198.7569478
2,-0.063268185,0.040360739,-0.010908308,0.55,0.39,9.06,0,0,0,1743569198.7706215
3,-0.12544554,0.107992247,0.002181662,0.35,0.22,9.33,0,0,0,1743569198.7865312
4,-0.076358155,0.13962634,-0.022907446,0.31,0.31,9.53,0,0,0,1743569198.7999828
5,-0.09817477,0.109083078,-0.011999139,0.27,0.26,9.57,0,0,0,1743569198.8143208
6,-0.100356432,0.066540678,-0.017453293,0,0.03,9.3,0,0,0,1743569198.8289788
7,-0.219256987,0.049087385,-0.020725785,0.11,0.14,8.97,0,0,0,1743569199
8,-0.367609974,0.179987079,-0.013089969,-0.03,-0.07,9.47,0,0,0,1743569198.857832
9,-0.333794219,0.158170463,-0.033815754,0.07,0,9.5,0,0,0,1743569198.870665
10,-0.211621172,0.128718032,-0.054541539,0.08,0.05,9.58,0,0,0,1743569198.8837335
11,-0.124354709,0.062177355,-0.058904862,0.09,0,9.39,0,0,0,1743569198.8984382
12,-0.047996554,0.032724923,-0.045814893,0.1,0.11,9.47,0,0,0,1743569198.9112656
13,-0.064359016,0.02727077,-0.02727077,0.21,0.06,9.53,0,0,0,1743569198.9266949
14,-0.011999139,0.013089969,-0.034906585,0.26,0.15,9.65,0,0,0,1743569198.939812
15,0.032724923,-0.059995693,-0.038179077,0.33,0.27,9.34,0,0,0,1743569198.9534345
16,0.038179077,-0.050178216,-0.031634093,0.14,0.04,9.41,0,0,0,1743569198.9683876
17,0.05563237,-0.010908308,-0.005454154,0.02,0.05,9.25,0,0,0,1743569198.981218
18,0.033815754,0.025089108,-0.003272492,-0.04,0.06,8.99,0,0,0,1743569198.9970653
19,0.011999139,0.130899694,0,-0.24,-0.05,9.39,0,0,0,1743569199.0099032
20,0.009817477,0.124354709,-0.007635815,-0.25,0,9.38,0,0,0,1743569199.0245168
21,0.040360739,0.114537232,-0.021816616,-0.52,-0.24,9.66,0,0,0,1743569199.0387833
22,0.123263878,-0.025089108,-0.053450708,-0.5,-0.28,9.56,0,0,0,1743569199.0519638
23,0.146171325,-0.051269047,-0.090538955,-0.41,-0.06,9.48,0,0,0,1743569199.067512
24,0.064359016,-0.018544123,-0.085084801,-0.23,0.15,9.1,0,0,0,1743569199.0803354
25,0.035997416,0.038179077,-0.079630647,-0.01,0.21,9.16,0,0,0,1743569199.0931585
26,0.005454154,0.102538094,-0.046905724,0,0.01,9.24,0,0,0,1743569199.1080124
27,-0.006544985,0.134172186,-0.025089108,-0.02,0,9.48,0,0,0,1743569199.1208339
28,-0.005454154,0.119991386,-0.032724923,-0.12,-0.12,9.63,0,0,0,1743569199.1336613
29,-0.031634093,0.063268185,-0.040360739,0.11,0.06,9.13,0,0,0,1743569199.1474326
30,-0.063268185,0.145080494,-0.035997416,0.13,0.01,9.39,0,0,0,1743569199.1602578
31,-0.04145157,0.136353848,-0.018544123,0.02,-0.11,9.43,0,0,0,1743569199.1743636
32,-0.052359878,0.138535509,-0.021816616,0.11,-0.01,9.31,0,0,0,1743569199.1873834
33,-0.042542401,0.117809725,-0.04145157,0.05,-0.08,9.51,0,0,0,1743569199.2002034
34,-0.009817477,0.092720617,-0.049087385,-0.05,-0.16,9.87,0,0,0,1743569199.215817
35,0.086175632,-0.110173909,-0.08399397,0.23,0,9.08,0,0,0,1743569199.2294476
36,0.093811447,-0.089448124,-0.094902278,0.3,0.07,8.79,0,0,0,1743569199.2422786
37,0.086175632,-0.021816616,-0.104719755,0.64,0.55,8.8,0,0,0,1743569199.2576647
38,0.093811447,0.05563237,-0.021816616,0.55,0.42,8.99,0,0,0,1743569199.270487
39,0.071994832,0.088357293,0.002181662,0.64,0.35,8.98,0,0,0,1743569199.2834485
40,0.031634093,0.161442956,-0.003272492,0.11,0.22,9.46,0,0,0,1743569199.296607
41,0.039269908,0.08399397,0.088357293,0.22,0.02,9.37,0,0,0,1743569199.3096075
42,0.062177355,0.09817477,0.081812309,0.23,0.22,9.45,0,0,0,1743569199.324193
43,0.062177355,0.128718032,0.075267324,0.09,0.11,9.87,0,0,0,1743569199.3372552
44,0.095993109,-0.023998277,0.073085662,-0.31,-0.12,10.09,0,0,0,1743569199.3500755
45,0.071994832,-0.063268185,0.030543262,-0.28,-0.17,9.49,0,0,0,1743569199.3657026
46,0.04145157,-0.013089969,0.019634954,-0.3,-0.16,9.5,0,0,0,1743569199.3792906
47,0.020725785,0.0141808,-0.004363323,0.01,0.34,9.5,0,0,0,1743569199.3941164
48,0.007635815,0.019634954,0.003272492,-0.09,0.22,9.43,0,0,0,1743569199.4083993
49,-0.056723201,0.013089969,0.035997416,-0.15,0.22,9.33,0,0,0,1743569199
50,-0.100356432,0.022907446,0.037088247,-0.12,0.15,9.23,0,0,0,1743569199
51,-0.116718894,0.042542401,0.031634093,0,0.06,8.89,0,0,0,1743569199.4474702
52,-0.158170463,0.11126474,0.090538955,0.05,0.15,8.97,0,0,0,1743569199.4602883
53,-0.178896248,0.130899694,0.115628063,-0.1,0.01,9.48,0,0,0,1743569199.475974
54,-0.11126474,0.162533787,0.102538094,-0.5,-0.36,10.32,0,0,0,1743569199.4890144
55,0.080721478,-0.163624617,-0.034906585,-0.1,0,8.84,0,0,0,1743569199.5031784
56,0.045814893,-0.118900555,-0.033815754,0.06,0.13,8.46,0,0,0,1743569199.5180068
57,-0.15271631,0.178896248,-0.007635815,-0.02,0.05,9.59,0,0,0,1743569199.5308251
58,-0.176714587,0.262890219,-0.006544985,0,0.07,9.98,0,0,0,1743569199.543644
59,-0.175623756,0.22362031,-0.015271631,-0.02,0.06,10.33,0,0,0,1743569199.5580897
60,-0.022907446,-0.061086524,-0.053450708,-0.2,0,9.39,0,0,0,1743569199.5710592
61,0.011999139,-0.160352125,-0.037088247,-0.1,0.03,9.03,0,0,0,1743569199.5838833
62,0.068722339,-0.103628924,-0.030543262,-0.06,0.08,8.96,0,0,0,1743569199.5972173
63,0.020725785,0.077448986,0.017453293,-0.31,-0.02,9.69,0,0,0,1743569199.610041
64,-0.023998277,0.078539816,0.016362462,-0.34,0,9.84,0,0,0,1743569199.6259084
65,0.004363323,-0.061086524,0.025089108,-0.29,0.17,9.12,0,0,0,1743569199.6389802
66,0.001090831,-0.082903139,0.037088247,-0.29,0.09,8.94,0,0,0,1743569199.6532269
67,0.013089969,-0.023998277,0.038179077,-0.43,0.04,9.02,0,0,0,1743569199.6678424
68,-0.025089108,0.067631509,0.110173909,-0.17,0.12,9.22,0,0,0,1743569199.6806614
69,-0.022907446,0.093811447,0.167987941,-0.18,0.22,9.45,0,0,0,1743569199.6934824
70,-0.0283616,0.034906585,0.27925268,-0.3,-0.24,9.36,0,0,0,1743569199.7079363
71,-0.051269047,0.089448124,0.193077049,-0.41,-0.11,9.85,0,0,0,1743569199.7209327
72,-0.011999139,0.087266463,0.089448124,-0.4,-0.03,9.9,0,0,0,1743569199.7337544
73,0.045814893,-0.001090831,0.030543262,-0.39,-0.03,9.77,0,0,0,1743569199.746883
74,0.066540678,0.016362462,0.004363323,-0.43,0.16,9.21,0,0,0,1743569199.7597044
75,0.044724062,0.09708394,-0.011999139,-0.48,0.24,9.44,0,0,0,1743569199.7750075
76,-0.032724923,0.118900555,0.0141808,-0.46,0.02,9.53,0,0,0,1743569199.788009
77,-0.09817477,0.092720617,0.017453293,-0.56,-0.06,9.54,0,0,0,1743569199.8008268
78,-0.076358155,0.079630647,-0.007635815,-0.52,0.12,9.21,0,0,0,1743569199.8165576
79,-0.052359878,0.148352986,-0.02727077,-0.37,0.11,9.12,0,0,0,1743569199.829387
80,0.001090831,0.130899694,-0.034906585,-0.38,-0.02,9.17,0,0,0,1743569199.842213
81,0.080721478,0.137444679,-0.067631509,-0.56,-0.22,9.42,0,0,0,1743569199.8580008
82,0.102538094,0.187622895,-0.087266463,-0.67,-0.33,9.44,0,0,0,1743569199.8713777
83,0.11126474,0.118900555,-0.110173909,-0.44,-0.24,9.1,0,0,0,1743569199.8842227
84,0.113446401,0.147262156,-0.141808002,-0.21,-0.17,9.19,0,0,0,1743569199.8975966
85,0.160352125,0.126536371,-0.091629786,-0.24,-0.28,9.52,0,0,0,1743569199.910422
86,0.227983634,0.044724062,-0.091629786,-0.18,-0.24,9.53,0,0,0,1743569199.926558
87,0.15380714,-0.033815754,-0.081812309,-0.06,-0.27,9.02,0,0,0,1743569199.939379
88,0.039269908,0.042542401,-0.091629786,0.02,-0.26,9.08,0,0,0,1743569199.9539385
89,-0.030543262,0.123263878,-0.110173909,0.29,0.12,10.23,0,0,0,1743569199.9680116
90,-0.017453293,0,-0.044724062,0.25,0.14,9.94,0,0,0,1743569199.980836
91,-0.011999139,-0.091629786,0.002181662,0.26,0.11,9.64,0,0,0,1743569199.993656
92,0.009817477,-0.078539816,0.006544985,-0.05,0.16,9.75,0,0,0,1743569200.0077915
93,0.061086524,-0.102538094,0.016362462,-0.15,0.2,9.7,0,0,0,1743569200.0211954
94,0.005454154,-0.080721478,0.025089108,-0.22,0.09,9.62,0,0,0,1743569200.0340176
95,-0.030543262,-0.040360739,0.007635815,-0.13,0.36,9.97,0,0,0,1743569200.047324
96,-0.009817477,-0.095993109,0.018544123,-0.25,0.37,9.83,0,0,0,1743569200.0601454
97,0,-0.176714587,0.06981317,-0.55,0,9.37,0,0,0,1743569200.0760636
98,0.049087385,-0.172351264,0.059995693,-0.48,0.12,8.97,0,0,0,1743569200.088894
99,0.039269908,-0.105810586,0.045814893,-0.47,0.16,8.85,0,0,0,1743569200.1042802
100,-0.007635815,-0.003272492,0.034906585,-0.63,-0.02,9.62,0,0,0,1743569200.1181731
101,-0.102538094,0.020725785,0.044724062,-0.61,-0.12,9.56,0,0,0,1743569200.130997
102,-0.082903139,-0.042542401,0.0283616,-0.46,-0.03,9.06,0,0,0,1743569200.1438265
103,-0.074176493,-0.033815754,0.002181662,-0.47,0.07,9.12,0,0,0,1743569200.1578584
104,-0.002181662,-0.056723201,-0.007635815,-0.38,0.11,9.06,0,0,0,1743569200.1715767
105,0.049087385,-0.038179077,-0.023998277,-0.25,0.24,9.31,0,0,0,1743569200.184395
106,0.089448124,-0.042542401,-0.047996554,-0.25,0.24,9.43,0,0,0,1743569200.1974065
107,0.128718032,-0.074176493,-0.06981317,-0.26,0.21,9.42,0,0,0,1743569200.2103987
108,0.117809725,-0.092720617,-0.056723201,-0.3,0.19,9.37,0,0,0,1743569200.2264187
109,0.070904001,-0.066540678,-0.046905724,-0.34,0.12,9.27,0,0,0,1743569200.2392414
110,0.091629786,-0.051269047,-0.058904862,-0.17,0.28,9.23,0,0,0,1743569200.2520647
111,0.109083078,-0.040360739,-0.057814031,-0.25,0.22,9.19,0,0,0,1743569200.2670066
112,0.151625479,-0.050178216,-0.062177355,-0.25,0.26,9.15,0,0,0,1743569200.279825
113,0.167987941,-0.025089108,-0.067631509,-0.26,0.31,9.38,0,0,0,1743569200.292644
114,0.172351264,0.006544985,-0.061086524,-0.28,0.23,9.67,0,0,0,1743569200.3072603
115,0.09708394,-0.025089108,-0.0141808,-0.33,0.02,9.62,0,0,0,1743569200.320079
116,0.122173048,-0.045814893,-0.009817477,-0.37,0.13,9.58,0,0,0,1743569200.3328986
117,0.145080494,-0.067631509,-0.0141808,-0.24,0.18,9.39,0,0,0,1743569200.3459005
118,-0.005454154,0.011999139,-0.0141808,-0.16,0.31,9.49,0,0,0,1743569200.3587205
119,-0.052359878,0.061086524,-0.022907446,-0.11,0.38,9.61,0,0,0,1743569200.3723876
120,-0.06981317,0.077448986,-0.021816616,-0.07,0.45,9.81,0,0,0,1743569200.3852115
121,-0.054541539,-0.017453293,0.004363323,-0.11,0.37,9.65,0,0,0,1743569200.3984272
122,-0.051269047,-0.053450708,0.008726646,-0.21,0.3,9.46,0,0,0,1743569200.4129488
123,-0.046905724,-0.059995693,0.016362462,-0.16,0.29,9.27,0,0,0,1743569200.4275322
124,-0.002181662,0.003272492,0.030543262,-0.21,0.18,9.34,0,0,0,1743569200.4404674
125,0.0141808,0.004363323,0.039269908,-0.16,0.19,9.36,0,0,0,1743569200.4560876
126,-0.003272492,-0.038179077,0.064359016,0,0.26,8.93,0,0,0,1743569200.4689083
127,-0.011999139,-0.034906585,0.071994832,0,0.22,8.95,0,0,0,1743569200.4817302
128,-0.008726646,-0.005454154,0.058904862,-0.02,0.18,8.99,0,0,0,1743569200.494556
129,0.054541539,0,0.049087385,-0.2,0.02,9.31,0,0,0,1743569200.5079544
130,0.082903139,-0.035997416,0.046905724,-0.2,0.04,9.19,0,0,0,1743569200.5207705
131,0.081812309,-0.02727077,0.042542401,-0.22,0.05,9.08,0,0,0,1743569200.5335941
132,0.039269908,0.0141808,0.053450708,-0.12,0.22,9.51,0,0,0,1743569200.5466383
133,0.0283616,0.010908308,0.043633231,-0.14,0.3,9.46,0,0,0,1743569200.5594687
134,0.019634954,0.004363323,0.047996554,-0.16,0.3,9.42,0,0,0,1743569200.5753257
135,-0.006544985,0.0141808,0.020725785,-0.17,0.44,9.58,0,0,0,1743569200.5883737
136,-0.017453293,0.010908308,0.032724923,-0.17,0.46,9.72,0,0,0,1743569200.6023068
137,-0.039269908,-0.004363323,0.038179077,-0.31,0.3,9.51,0,0,0,1743569200.6169374
138,-0.006544985,-0.025089108,0.047996554,-0.28,0.33,9.47,0,0,0,1743569200.6297588
139,0.019634954,-0.030543262,0.046905724,-0.32,0.33,9.44,0,0,0,1743569200.6425798
140,0.031634093,-0.033815754,0.044724062,-0.35,0.32,9.45,0,0,0,1743569200.6570344
141,0.019634954,-0.016362462,0.022907446,-0.32,0.27,9.65,0,0,0,1743569200.6698582
142,0.022907446,-0.039269908,0.021816616,-0.49,0.08,9.49,0,0,0,1743569200.682682
143,0.025089108,-0.090538955,-0.001090831,-0.42,0.14,9.23,0,0,0,1743569200.6956794
144,-0.035997416,-0.011999139,-0.005454154,-0.2,0.29,9.19,0,0,0,1743569201
145,-0.039269908,0.008726646,0.008726646,-0.3,0.15,9.38,0,0,0,1743569200.7235794
146,-0.045814893,0.001090831,0.0141808,-0.27,0.13,9.42,0,0,0,1743569200.7365732
147,-0.013089969,-0.04145157,-0.005454154,-0.25,0.07,9.06,0,0,0,1743569200.7494004
148,0.013089969,-0.042542401,-0.029452431,-0.21,0.17,9.01,0,0,0,1743569200.7652924
149,0.061086524,0.003272492,-0.057814031,-0.15,0.25,9.01,0,0,0,1743569200.7783942
150,0.056723201,0.022907446,-0.058904862,-0.14,0.36,9.12,0,0,0,1743569200.7912164
151,0.017453293,0.033815754,-0.032724923,-0.08,0.32,9.14,0,0,0,1743569200.806283
152,-0.022907446,0.020725785,-0.010908308,0.01,0.39,9.13,0,0,0,1743569200.8191035
153,-0.006544985,0.0283616,-0.009817477,-0.05,0.33,9.19,0,0,0,1743569200.8319228
154,-0.007635815,0.029452431,-0.005454154,-0.06,0.28,9.21,0,0,0,1743569200.8447409
155,0.031634093,0.044724062,-0.019634954,-0.13,0.34,9.22,0,0,0,1743569200.857954
156,0.037088247,0.043633231,0,-0.12,0.31,9.23,0,0,0,1743569200.8716502
157,0.040360739,0.046905724,-0.003272492,-0.07,0.34,9.41,0,0,0,1743569200.8844697
158,0.015271631,0.034906585,0.008726646,-0.23,0.25,9.63,0,0,0,1743569200.8978767
159,0.008726646,-0.026179939,0.013089969,-0.23,0.3,9.54,0,0,0,1743569200.9124842
160,0.050178216,-0.032724923,0.013089969,-0.3,0.24,9.39,0,0,0,1743569200.9270723
161,0.031634093,0.004363323,0.016362462,-0.28,0.31,9.43,0,0,0,1743569200.9398963
162,0.010908308,0.025089108,0.0141808,-0.35,0.22,9.46,0,0,0,1743569200.9547262
163,-0.015271631,0.046905724,0.005454154,-0.29,0.35,9.64,0,0,0,1743569200.9678648
164,-0.029452431,0.032724923,0,-0.31,0.32,9.66,0,0,0,1743569200.9806852
165,-0.046905724,0.005454154,0.003272492,-0.41,0.21,9.6,0,0,0,1743569200.9935052
166,-0.042542401,-0.020725785,-0.003272492,-0.34,0.2,9.3,0,0,0,1743569201.007346
167,-0.018544123,-0.008726646,-0.008726646,-0.32,0.12,9.2,0,0,0,1743569201.0215893
168,-0.004363323,0.010908308,-0.017453293,-0.28,0.22,9.2,0,0,0,1743569201.0344198
169,0.011999139,0.047996554,-0.022907446,-0.02,0.48,9.33,0,0,0,1743569201.047853
170,0.016362462,0.067631509,-0.015271631,-0.03,0.42,9.6,0,0,0,1743569201.0613022
171,0.051269047,0.033815754,0,-0.17,0.3,9.21,0,0,0,1743569201.076361
172,0.019634954,-0.019634954,0.004363323,-0.16,0.3,9.14,0,0,0,1743569201.0891821
173,0.011999139,0.003272492,-0.004363323,-0.19,0.35,9.09,0,0,0,1743569201.1050456
174,-0.001090831,0.067631509,0.007635815,-0.11,0.39,9.37,0,0,0,1743569201.1179078
175,0.0141808,0.059995693,0.013089969,-0.11,0.41,9.53,0,0,0,1743569201.130729
176,0.037088247,0.057814031,0.015271631,-0.22,0.4,9.72,0,0,0,1743569201.1435492
177,0.02727077,0.0141808,0.025089108,-0.27,0.27,9.39,0,0,0,1743569201.1572387
178,-0.006544985,-0.010908308,0.020725785,-0.28,0.22,9.31,0,0,0,1743569201.170482
179,-0.02727077,0.019634954,0.0141808,-0.11,0.26,9.38,0,0,0,1743569201.1833012
180,-0.029452431,0.039269908,0.007635815,0.12,0.32,9.47,0,0,0,1743569201.1963663
181,-0.058904862,0.081812309,0.016362462,0.22,0.21,9.53,0,0,0,1743569201.2091877
182,-0.065449847,0.101447263,0.017453293,0.45,0.38,9.73,0,0,0,1743569201.2250347
183,-0.100356432,0.127627202,0.046905724,0.52,0.33,9.97,0,0,0,1743569201.2378566
184,-0.090538955,0.105810586,0.05563237,0.56,0.24,10.29,0,0,0,1743569201.2530677
185,-0.02727077,0.006544985,0.064359016,0.89,0.51,9.16,0,0,0,1743569201.2669797
186,-0.007635815,-0.109083078,0.052359878,0.55,0.48,9.14,0,0,0,1743569201.2798028
187,0.008726646,-0.100356432,0.114537232,0.91,0.44,8.75,0,0,0,1743569201.292621
188,0.043633231,-0.092720617,0.11126474,0.96,0.36,8.89,0,0,0,1743569201.3067534
189,0.045814893,0.013089969,0.137444679,0.69,0.17,9,0,0,0,1743569201.320055
190,0.073085662,0.045814893,0.163624617,0.58,0.27,8.73,0,0,0,1743569201.3328743
191,-0.025089108,0.038179077,0.186532064,0.31,0.6,9.22,0,0,0,1743569201.3459132
192,-0.093811447,0.112355571,0.260708557,-0.04,0.19,10.04,0,0,0,1743569201.358737
193,-0.025089108,0.107992247,0.321795081,0.09,0.33,9.98,0,0,0,1743569201
194,0.031634093,-0.100356432,0.363246651,-0.13,0.17,9.84,0,0,0,1743569201.3875537
195,0.02727077,-0.165806279,0.350156681,-0.41,0.29,9.24,0,0,0,1743569201.4020088
196,0.007635815,-0.197440372,0.356701666,-0.52,0.3,8.79,0,0,0,1743569201.4164026
197,-0.117809725,-0.049087385,0.346884189,-0.61,0.28,8.77,0,0,0,1743569201.4292228
198,-0.136353848,0.051269047,0.322885912,-0.91,0.27,9.33,0,0,0,1743569201.4420462
199,-0.142898833,0.12544554,0.339248373,-1.18,0.06,9.65,0,0,0,1743569201.456361
200,-0.046905724,-0.011999139,0.307614281,-1.04,0.39,9.84,0,0,0,1743569201.469496
201,-0.040360739,-0.035997416,0.251981911,-1.14,0.44,9.86,0,0,0,1743569201.4823205
202,-0.040360739,-0.124354709,0.229074464,-1.2,0.38,9.25,0,0,0,1743569201.4956596
203,-0.022907446,-0.217075326,0.206167018,-1.06,0.53,8.85,0,0,0,1743569201.508477
204,0.008726646,-0.145080494,0.19525871,-1.14,0.41,8.7,0,0,0,1743569202
205,0.018544123,0.029452431,0.141808002,-1.13,0.49,9.27,0,0,0,1743569201.5372021
206,0.030543262,0.110173909,0.114537232,-1.25,0.35,9.38,0,0,0,1743569201.5514657
207,0.038179077,0.063268185,0.107992247,-1.35,0.17,9.3,0,0,0,1743569201.5660913
208,0.071994832,0.010908308,0.066540678,-1.31,0.11,9.32,0,0,0,1743569201.5789237
209,0.044724062,0.047996554,0.033815754,-1.4,-0.01,9.81,0,0,0,1743569201.5917454
210,0.033815754,0.077448986,-0.007635815,-1.28,-0.03,9.5,0,0,0,1743569201.6062748
211,-0.090538955,-0.016362462,-0.029452431,-1.16,0.05,9.55,0,0,0,1743569201.619544
212,-0.09708394,0.019634954,-0.06981317,-1.01,0.11,9.62,0,0,0,1743569201.6323714
213,-0.062177355,0.011999139,-0.09708394,-0.79,0.33,9.84,0,0,0,1743569201.6453872
214,0.019634954,-0.092720617,-0.020725785,-0.97,0.22,9.39,0,0,0,1743569201.658209
215,0.033815754,-0.143989663,-0.033815754,-0.93,0.27,9.18,0,0,0,1743569201.6738856
216,-0.030543262,0.010908308,-0.105810586,-0.64,0.56,9.45,0,0,0,1743569201.686954
217,-0.073085662,0.007635815,-0.112355571,-0.6,0.4,9.37,0,0,0,1743569201.7011442
218,-0.085084801,0.020725785,-0.137444679,-0.65,0.61,9.14,0,0,0,1743569201.7157817
219,-0.0283616,0.003272492,-0.197440372,-0.53,0.83,8.81,0,0,0,1743569201.7286005
220,-0.095993109,0.013089969,-0.183259571,-0.4,0.63,9.14,0,0,0,1743569202
221,-0.092720617,0.093811447,-0.12544554,-0.48,0.52,8.79,0,0,0,1743569201.7558992
222,-0.079630647,0.046905724,0.043633231,-0.69,0.06,8.96,0,0,0,1743569201.768719
223,-0.026179939,0.159261294,0.006544985,-0.68,0.13,9.2,0,0,0,1743569201.7815387
224,0.020725785,0.224711141,-0.078539816,-0.61,0.16,9.73,0,0,0,1743569201.7949438
225,-0.001090831,0.230165295,-0.136353848,-0.66,-0.05,9.57,0,0,0,1743569201.8077617
226,-0.020725785,0.178896248,-0.150534648,-0.47,0,9.44,0,0,0,1743569201.8229547
227,0.061086524,0.199622033,-0.171260433,-0.41,0.13,9.76,0,0,0,1743569201.836002
228,0.169078771,0.128718032,-0.191986218,-0.44,0.13,9.53,0,0,0,1743569201.8488219
229,0.175623756,0.116718894,-0.215984495,-0.49,0,9.52,0,0,0,1743569201.8647223
230,0.103628924,0.143989663,-0.215984495,0,0.33,9.14,0,0,0,1743569201.8775465
231,0.063268185,0.179987079,-0.199622033,-0.03,0.32,9.41,0,0,0,1743569201.890372
232,0.130899694,0.163624617,-0.124354709,0.49,0.76,8.79,0,0,0,1743569201.9052942
233,0.283616003,0.054541539,0.077448986,0.5,0.41,8.68,0,0,0,1743569201.9181135
234,0.251981911,0.15380714,0.109083078,0.4,0.32,8.73,0,0,0,1743569201.9309337
235,0.25089108,0.232346957,0.079630647,0.67,0.42,8.86,0,0,0,1743569201.9437523
236,0.326158404,0.380699943,0.075267324,0.66,0.47,9.46,0,0,0,1743569201.956966
237,0.423242344,0.359974158,0.135263017,0.04,0.17,9.76,0,0,0,1743569201.9713674
238,0.294524311,0.261799388,0.016362462,0.23,0.19,9.5,0,0,0,1743569201.984421
239,0.119991386,0.13962634,-0.145080494,0.69,0.68,8.9,0,0,0,1743569201.9972396
240,0.188713725,0.086175632,-0.157079633,0.72,0.79,8.77,0,0,0,1743569202.0121672
241,0.237801111,0.105810586,-0.130899694,0.51,0.66,9.52,0,0,0,1743569202.0263715
242,0.160352125,0.162533787,-0.007635815,0.09,0.06,9.71,0,0,0,1743569202.0391908
243,0.02727077,0.122173048,0.001090831,0.05,0.3,9.73,0,0,0,1743569202.0547564
244,-0.093811447,0.145080494,-0.128718032,-0.21,0.12,10.01,0,0,0,1743569202.0675771
245,-0.182168741,0.035997416,-0.053450708,-0.02,-0.05,9.36,0,0,0,1743569202.0803955
246,-0.155988802,-0.010908308,-0.056723201,0.12,0.33,9.28,0,0,0,1743569202.093214
247,-0.244346095,0.182168741,-0.086175632,0.17,0.38,9.9,0,0,0,1743569202.106562
248,-0.198531202,0.170169602,-0.114537232,0.1,0.39,10.3,0,0,0,1743569202.1207595
249,-0.140717171,0.112355571,-0.115628063,0.01,0.37,10.54,0,0,0,1743569202.1335816
250,-0.082903139,-0.164715448,-0.089448124,-0.04,0.4,9.87,0,0,0,1743569202.1467016
251,-0.033815754,-0.296705973,-0.087266463,-0.06,0.34,9.34,0,0,0,1743569202.1611333
252,-0.043633231,-0.342520866,-0.101447263,-0.07,0.27,9.13,0,0,0,1743569202.175824
253,0.011999139,-0.169078771,-0.163624617,-0.12,0.52,9.67,0,0,0,1743569202.1887574
254,0.051269047,-0.150534648,-0.174532925,-0.16,0.82,9.53,0,0,0,1743569202.2044432
255,-0.178896248,-0.335975881,0.057814031,0.22,0.97,7.85,0,0,0,1743569202.2172656
256,-0.205076187,-0.318522588,0.151625479,-0.01,0.51,7.8,0,0,0,1743569202.2300875
257,-0.174532925,-0.165806279,0.184350402,-0.14,0.31,8.11,0,0,0,1743569202.2429059
258,-0.128718032,0.160352125,0.127627202,-0.47,0.22,8.62,0,0,0,1743569202.2563035
259,-0.182168741,0.186532064,0.086175632,-0.66,-0.03,8.83,0,0,0,1743569202.2701993
260,-0.235619449,0.256345234,0.062177355,-0.7,-0.06,9.03,0,0,0,1743569202.2830179
261,-0.09708394,0.237801111,-0.070904001,-0.86,0.02,10.67,0,0,0,1743569202.2964277
262,0.06981317,0.213802833,-0.088357293,-1.04,0.3,10.86,0,0,0,1743569202.3107653
263,0.189804556,0.002181662,-0.09817477,-1.28,0.24,9.9,0,0,0,1743569202.325553
264,0.157079633,-0.354520004,-0.04145157,-1.1,0.42,9.4,0,0,0,1743569202.3383772
265,0.088357293,-0.400334897,-0.021816616,-1.21,0.53,9.26,0,0,0,1743569202.354197
266,-0.071994832,-0.253072742,0.136353848,-1.04,0.66,9.36,0,0,0,1743569202.3670194
267,-0.076358155,-0.099265601,0.146171325,-1.47,0.31,9.81,0,0,0,1743569202.3798347
268,-0.079630647,0.003272492,0.164715448,-1.56,0.16,9.91,0,0,0,1743569202.3926659
269,-0.124354709,-0.053450708,0.107992247,-1.68,0.43,9.7,0,0,0,1743569202.406224
270,-0.164715448,-0.093811447,0.130899694,-1.77,0.4,9.17,0,0,0,1743569202.420263
271,-0.158170463,-0.176714587,0.187622895,-1.48,0.57,8.87,0,0,0,1743569202.4330823
272,-0.092720617,-0.078539816,0.206167018,-1.96,0.11,9.18,0,0,0,1743569202.4461644
273,-0.13962634,-0.086175632,0.191986218,-1.84,0.11,9.19,0,0,0,1743569202.4602187
274,-0.140717171,-0.011999139,0.127627202,-2.07,0.02,9.27,0,0,0,1743569202.4753294
275,-0.08399397,-0.092720617,0.109083078,-1.91,-0.16,8.87,0,0,0,1743569202.4881535
276,-0.076358155,-0.107992247,0.093811447,-1.67,-0.11,9.02,0,0,0,1743569202.5036027
277,0.034906585,0.010908308,0.007635815,-1.43,0.15,9.6,0,0,0,1743569202.5166235
278,0.031634093,-0.016362462,-0.017453293,-1.48,0.25,9.88,0,0,0,1743569202.5294566
279,0.007635815,-0.010908308,-0.016362462,-1.1,0.39,9.22,0,0,0,1743569202.5445704
280,-0.082903139,-0.103628924,0.040360739,-1.21,0.16,9.38,0,0,0,1743569202.5574045
281,-0.003272492,-0.057814031,0.056723201,-1.24,0.05,9.39,0,0,0,1743569202.5731337
282,0.119991386,-0.080721478,0.045814893,-0.86,0.51,9.19,0,0,0,1743569202.5862153
283,0.068722339,0.018544123,0.042542401,-0.63,0.67,9.27,0,0,0,1743569202.6006248
284,0,0.058904862,0.050178216,-0.59,0.03,9.19,0,0,0,1743569202.615085
285,0.034906585,0.033815754,0.023998277,-0.48,0.26,9.15,0,0,0,1743569202.6279085
286,0.064359016,0.076358155,-0.050178216,-0.33,0.48,9.22,0,0,0,1743569202.6407294
287,0.025089108,0.082903139,-0.050178216,-0.04,0.47,9.03,0,0,0,1743569202.6551921
288,-0.039269908,0.009817477,-0.003272492,0,0.3,8.64,0,0,0,1743569202.6683261
289,-0.062177355,0.033815754,-0.002181662,0.02,-0.02,8.66,0,0,0,1743569202.6811457
290,-0.071994832,0.183259571,-0.051269047,-0.17,-0.18,9.27,0,0,0,1743569202.694528
291,0.129808863,0.206167018,-0.061086524,-0.15,-0.18,9.57,0,0,0,1743569202.7073529
292,0.193077049,0.184350402,-0.045814893,-0.06,0.11,9.66,0,0,0,1743569202.7231593
293,0.116718894,0.035997416,-0.019634954,0.33,0.39,9.04,0,0,0,1743569202.7361772
294,0.056723201,-0.02727077,0,0.45,0.42,8.84,0,0,0,1743569202.7505536
295,0.061086524,0.056723201,-0.013089969,0.31,0.33,9.23,0,0,0,1743569202.7650433
296,0.107992247,0.162533787,-0.044724062,0.33,0.32,9.58,0,0,0,1743569202.7779891
297,0.087266463,0.229074464,-0.074176493,0.23,0.29,9.98,0,0,0,1743569202.7908235
298,0.051269047,0.208348679,-0.09817477,0.03,0.05,9.69,0,0,0,1743569202.8051398
299,0,0.052359878,-0.062177355,0.02,0.01,9.93,0,0,0,1743569202.8182366
300,0.044724062,0.045814893,-0.090538955,-0.04,0.15,9.78,0,0,0,1743569202.8310552
301,0.087266463,-0.026179939,-0.095993109,0.05,0.12,9.4,0,0,0,1743569202.8440528
302,0.02727077,-0.042542401,-0.029452431,0.55,0.52,9.32,0,0,0,1743569202.8568707
303,0.029452431,-0.030543262,-0.029452431,0.67,0.82,9.51,0,0,0,1743569202.872695
304,0.018544123,0,0.005454154,0.78,0.71,9.35,0,0,0,1743569202.8856955
305,-0.016362462,-0.023998277,0.058904862,0.81,0.73,9.4,0,0,0,1743569202.8998735
306,-0.019634954,0.006544985,0.076358155,0.65,0.5,9.4,0,0,0,1743569202.9146252
307,-0.034906585,-0.030543262,0.09708394,0.6,0.34,9.4,0,0,0,1743569202.927447
308,-0.054541539,-0.017453293,0.110173909,0.27,0.06,9.51,0,0,0,1743569202.940268
309,-0.071994832,-0.034906585,0.140717171,0.22,0.02,9.6,0,0,0,1743569202.9548147
310,-0.067631509,-0.05563237,0.129808863,0.14,0.06,9.74,0,0,0,1743569202.9678824
311,-0.058904862,-0.123263878,0.118900555,0.4,0.49,9.16,0,0,0,1743569202.9807837
312,-0.057814031,-0.213802833,0.127627202,0.42,0.59,8.89,0,0,0,1743569202.9942234
313,-0.019634954,-0.234528618,0.154897971,0.32,0.37,8.57,0,0,0,1743569203.0071218
314,-0.015271631,-0.18107791,0.161442956,0.18,0.56,8.67,0,0,0,1743569203.0230074
315,0.005454154,-0.112355571,0.174532925,0.29,0.98,8.3,0,0,0,1743569203.0360444
316,0.021816616,-0.116718894,0.249800249,-0.02,0.62,7.98,0,0,0,1743569203.050747
317,0.005454154,-0.045814893,0.34797502,-0.7,0.12,8.89,0,0,0,1743569203.0649672
318,-0.016362462,0.191986218,0.410152374,-0.79,0.22,9.3,0,0,0,1743569203.077865
319,-0.067631509,0.248709418,0.39051742,-1.24,0,10.08,0,0,0,1743569203.0907621
320,-0.129808863,0.241073603,0.385063266,-1.3,0.11,10.02,0,0,0,1743569203.105029
321,-0.087266463,0.085084801,0.32070425,-1.37,0.43,10.46,0,0,0,1743569203.118585
322,-0.031634093,0.064359016,0.29343348,-1.58,0.39,10.68,0,0,0,1743569203.1314907
323,0.020725785,-0.019634954,0.282525173,-1.69,0.38,10.07,0,0,0,1743569203.144634
324,0.161442956,-0.229074464,0.235619449,-1.81,0.72,9.33,0,0,0,1743569203.1576893
325,0.149443817,-0.229074464,0.227983634,-2.01,0.29,9.31,0,0,0,1743569203.1737335
326,0.049087385,-0.074176493,0.241073603,-2.14,0.21,9.58,0,0,0,1743569203.1866348
327,0.061086524,-0.04145157,0.196349541,-2.13,0.27,9.76,0,0,0,1743569203.202249
328,0.011999139,-0.022907446,0.11126474,-2.33,0.11,9.84,0,0,0,1743569203.2157497
329,-0.045814893,-0.100356432,0.079630647,-2.13,0.13,9.22,0,0,0,1743569203.228649
330,-0.062177355,-0.127627202,0.033815754,-2.18,0.02,9.13,0,0,0,1743569203.2415442
331,-0.0283616,-0.099265601,-0.005454154,-1.8,0.2,9.18,0,0,0,1743569203.2552953
332,0.062177355,0.003272492,-0.116718894,-1.62,0.13,9.6,0,0,0,1743569203.2692754
333,0.091629786,0.026179939,-0.140717171,-1.54,0.26,9.8,0,0,0,1743569203.2821767
334,0.018544123,-0.039269908,-0.185441233,-0.99,0.77,9.53,0,0,0,1743569203.2956553
335,-0.070904001,-0.056723201,-0.171260433,-0.93,0.72,9.52,0,0,0,1743569203
336,-0.126536371,-0.063268185,-0.143989663,-1.01,0.39,9.25,0,0,0,1743569203.3247554
337,-0.054541539,-0.067631509,-0.114537232,-0.89,0.41,9.13,0,0,0,1743569203.3376532
338,-0.047996554,-0.030543262,-0.138535509,-1,0.28,9.24,0,0,0,1743569203.3533907
339,-0.073085662,0.035997416,-0.124354709,-0.69,0.31,9.1,0,0,0,1743569203.3664641
340,-0.064359016,0.077448986,-0.163624617,-0.79,0.38,9.65,0,0,0,1743569203.3793738
341,0.0141808,0.172351264,-0.231256126,-0.69,0.47,10.22,0,0,0,1743569203.3922677
342,0.086175632,-0.020725785,-0.269435203,-0.67,0.29,9.49,0,0,0,1743569203.4055595
343,0.092720617,-0.087266463,-0.260708557,-0.8,0.2,9.39,0,0,0,1743569203.4199812
344,0.088357293,-0.082903139,-0.258526895,-0.71,0.2,8.98,0,0,0,1743569203.4330518
345,0.062177355,0.029452431,-0.286888496,-0.73,-0.08,9.11,0,0,0,1743569203.4459527
346,0.070904001,0.063268185,-0.302160127,-0.32,0.12,8.89,0,0,0,1743569203.4609568
347,0.082903139,0.08399397,-0.353429174,0.08,0.41,9.63,0,0,0,1743569203.4750743
348,0.123263878,0.178896248,-0.377427451,0.09,0.56,9.51,0,0,0,1743569203.4879704
349,0.15380714,0.089448124,-0.367609974,0.1,0.32,9.35,0,0,0,1743569203.5034978
350,0.103628924,0.011999139,-0.289070157,0.33,0.58,8.6,0,0,0,1743569203.5163913
351,0.103628924,0.029452431,-0.285797665,0.72,0.84,8.6,0,0,0,1743569203.529286
352,0.082903139,0.107992247,-0.256345234,0.54,0.68,8.77,0,0,0,1743569203.5421786
353,0.054541539,0.199622033,-0.221438649,0.62,0.38,9.16,0,0,0,1743569203.5554736
354,0.047996554,0.187622895,-0.211621172,0.7,0.38,9.1,0,0,0,1743569203.5700567
355,0.0283616,0.160352125,-0.205076187,0.78,0.54,9.06,0,0,0,1743569203.5831723
356,0.074176493,0.124354709,-0.131990525,1,0.51,9.19,0,0,0,1743569204
357,0.150534648,0.102538094,-0.118900555,1.14,0.67,9.38,0,0,0,1743569203.6115227
358,0.129808863,0.081812309,-0.058904862,1.11,0.5,9.67,0,0,0,1743569203.6252418
359,0.11126474,0.054541539,-0.04145157,1.03,0.57,9.74,0,0,0,1743569203.6381412
360,0.11126474,0.044724062,-0.0141808,0.97,0.64,9.64,0,0,0,1743569203.653455
361,0.063268185,0.009817477,0.030543262,1.12,0.8,9.96,0,0,0,1743569203.6663508
362,0.073085662,-0.003272492,0.045814893,1.1,0.91,9.9,0,0,0,1743569203.679254
363,0.063268185,-0.076358155,0.094902278,1.03,0.82,9.69,0,0,0,1743569203.692145
364,0.007635815,-0.087266463,0.129808863,0.74,0.67,9.46,0,0,0,1743569203.705321
365,-0.022907446,-0.058904862,0.136353848,0.7,0.74,9.64,0,0,0,1743569203.7199426
366,-0.04145157,-0.042542401,0.163624617,0.4,0.47,9.9,0,0,0,1743569203.7330272
367,-0.129808863,-0.135263017,0.198531202,0.03,0.36,9.68,0,0,0,1743569203.7459333
368,-0.131990525,-0.157079633,0.200712864,0.06,0.29,9.26,0,0,0,1743569203.7613134
369,-0.142898833,-0.135263017,0.162533787,-0.08,0.97,8.98,0,0,0,1743569203.7751198
370,-0.162533787,-0.074176493,0.245436926,-0.23,0.82,9.06,0,0,0,1743569203.7880132
371,-0.162533787,-0.074176493,0.245436926,-0.79,0.37,9.45,0,0,0,1743569203.803273
372,-0.046905724,-0.141808002,0.27816185,-0.95,0.14,9.34,0,0,0,1743569203.8161688
373,-0.02727077,-0.194167879,0.235619449,-1,0.29,9.16,0,0,0,1743569203.829061
374,-0.018544123,-0.226892803,0.210530341,-1.11,0.52,8.66,0,0,0,1743569203.8419588
375,-0.022907446,-0.162533787,0.188713725,-1.48,0.34,8.82,0,0,0,1743569203.8552446
376,0.016362462,0.021816616,0.16689711,-1.74,0.52,9.71,0,0,0,1743569203.869938
377,-0.026179939,-0.009817477,0.165806279,-1.54,0.84,9.78,0,0,0,1743569203.8830671
378,-0.080721478,-0.081812309,0.20943951,-1.82,0.68,9.31,0,0,0,1743569203.8959699
379,-0.042542401,-0.158170463,0.26507188,-2.1,0.38,8.55,0,0,0,1743569203.9116416
380,0.042542401,0.182168741,0.201803695,-2.22,0.38,9.12,0,0,0,1743569203.9253254
381,-0.013089969,0.315250096,0.149443817,-2.39,0.12,10.04,0,0,0,1743569203.9382236
382,-0.06981317,0.25089108,0.075267324,-2.41,0.1,10.8,0,0,0,1743569203.9534016
383,-0.127627202,-0.077448986,-0.007635815,-2.23,0.23,10.39,0,0,0,1743569203.9663074
384,-0.138535509,-0.147262156,-0.019634954,-1.93,0.27,9.56,0,0,0,1743569203.9792025
385,-0.124354709,-0.147262156,-0.045814893,-1.69,0.29,9.26,0,0,0,1743569203.9925427
386,-0.019634954,0.002181662,-0.122173048,-1.43,0.45,9.66,0,0,0,1743569204.0054345
387,-0.025089108,-0.026179939,-0.140717171,-1.43,0.28,9.77,0,0,0,1743569204.0205126
388,0,-0.06981317,-0.163624617,-1.46,0.51,9.4,0,0,0,1743569204.0336254
389,-0.088357293,-0.150534648,-0.086175632,-0.9,0.63,8.63,0,0,0,1743569204.0465171
390,-0.102538094,-0.035997416,-0.059995693,-1,0.41,8.66,0,0,0,1743569204.0624957
391,-0.021816616,0.135263017,-0.101447263,-0.94,0.38,8.68,0,0,0,1743569204.0754085
392,0.005454154,0.232346957,-0.115628063,-1.05,0.09,9.36,0,0,0,1743569204.0883076
393,-0.023998277,0.272707696,-0.131990525,-1.36,-0.33,9.89,0,0,0,1743569204.1032593
394,0.067631509,0.104719755,-0.257436065,-1.16,-0.13,9.63,0,0,0,1743569204.116163
395,0.062177355,0.081812309,-0.285797665,-0.72,0.36,8.83,0,0,0,1743569204.1290576
396,0.040360739,0.145080494,-0.275980188,-0.68,0.21,8.77,0,0,0,1743569204.1419616
397,0.146171325,0.227983634,-0.294524311,-0.27,0.44,9.75,0,0,0,1743569204.1550946
398,0.113446401,0.146171325,-0.307614281,-0.1,0.57,9.59,0,0,0,1743569204.169943
399,0.049087385,0.091629786,-0.27816185,-0.11,0.48,8.98,0,0,0,1743569204.1830144
400,0.056723201,0.059995693,-0.19525871,0.26,0.49,8.14,0,0,0,1743569204.1958706
401,0.086175632,0.227983634,-0.19525871,0.44,0.34,8.7,0,0,0,1743569204.2117164
402,0.077448986,0.254163572,-0.254163572,0.72,0.42,10.33,0,0,0,1743569204.2251203
403,0.033815754,0.135263017,-0.251981911,0.6,0.38,10.42,0,0,0,1743569204.2380235
404,0.032724923,-0.089448124,-0.214893664,0.94,0.71,8.64,0,0,0,1743569204.2530537
405,0.011999139,-0.101447263,-0.140717171,1.02,0.63,8.03,0,0,0,1743569204.265958
406,-0.008726646,0.101447263,-0.079630647,0.93,0.49,8.51,0,0,0,1743569204.2788548
407,0.018544123,0.148352986,-0.045814893,0.94,0.57,8.7,0,0,0,1743569204.2922294
408,0,0.199622033,0.021816616,0.54,0.23,10.17,0,0,0,1743569204.3051298
409,0.026179939,0.008726646,0.04145157,0.39,0.19,9.96,0,0,0,1743569204.3201435
410,0.044724062,-0.116718894,0.038179077,0.16,0.39,8.98,0,0,0,1743569204.333218
411,0.037088247,-0.010908308,0.037088247,0.02,0.58,9.01,0,0,0,1743569204.3462694
412,0.056723201,0.02727077,0.053450708,-0.08,0.69,8.99,0,0,0,1743569204.3622663
413,-0.035997416,0.124354709,0.107992247,-0.7,0.48,9.64,0,0,0,1743569204.3751614
414,-0.109083078,0.118900555,0.124354709,-0.73,0.42,9.86,0,0,0,1743569204.3880565
415,-0.09708394,0.109083078,0.115628063,-0.99,0.38,10.14,0,0,0,1743569204.4030573
416,0.031634093,-0.151625479,0.094902278,-0.93,0.65,9.8,0,0,0,1743569204
417,0.050178216,-0.191986218,0.100356432,-0.98,0.59,9.61,0,0,0,1743569204.4288409
418,0.063268185,-0.19525871,0.088357293,-1.15,0.38,9.34,0,0,0,1743569204.4417326
419,0.074176493,-0.020725785,0.039269908,-1.32,0.18,9.11,0,0,0,1743569204.4548073
420,0.071994832,0.063268185,-0.002181662,-1.28,0.24,9.42,0,0,0,1743569204.4696085
421,0.053450708,0.095993109,-0.032724923,-1.1,0.56,10.11,0,0,0,1743569204.4827225
422,-0.110173909,-0.064359016,-0.016362462,-1.02,0.33,9.77,0,0,0,1743569204.4956164
423,-0.109083078,-0.070904001,-0.043633231,-1,0.29,9.56,0,0,0,1743569204.5115027
424,-0.129808863,0.044724062,-0.087266463,-0.75,0.48,10.25,0,0,0,1743569205
425,-0.091629786,0.046905724,-0.094902278,-0.82,0.38,10.66,0,0,0,1743569204.537889
426,-0.025089108,0.017453293,-0.099265601,-0.86,0.45,11.13,0,0,0,1743569205
427,0.009817477,-0.063268185,-0.105810586,-0.85,0.46,11.15,0,0,0,1743569204.5658326
428,0.011999139,-0.103628924,-0.101447263,-0.94,0.53,11.29,0,0,0,1743569204.5787592
429,-0.04145157,-0.158170463,-0.102538094,-0.85,0.58,11.04,0,0,0,1743569204.5921597
430,-0.078539816,-0.212712003,-0.12544554,-0.92,0.32,10.74,0,0,0,1743569204.6050751
431,-0.064359016,-0.231256126,-0.149443817,-0.81,0.42,10.3,0,0,0,1743569204.620506
432,-0.103628924,-0.189804556,-0.138535509,-0.68,0.53,9.91,0,0,0,1743569204.633642
433,-0.151625479,-0.151625479,-0.09817477,-0.64,0.49,9.84,0,0,0,1743569204.647482
434,-0.136353848,-0.15271631,-0.094902278,-0.49,0.48,9.23,0,0,0,1743569204.6625943
435,-0.206167018,-0.15271631,-0.045814893,-0.49,0.32,9.07,0,0,0,1743569204.6754863
436,-0.22252948,-0.126536371,-0.045814893,-0.61,0.22,9.02,0,0,0,1743569205
437,-0.245436926,-0.150534648,-0.051269047,-0.67,-0.04,8.25,0,0,0,1743569204.703066
438,-0.25089108,-0.135263017,-0.052359878,-0.73,-0.17,7.88,0,0,0,1743569204.7159624
439,-0.22252948,-0.091629786,-0.076358155,-0.62,-0.15,7.6,0,0,0,1743569205
440,-0.185441233,-0.034906585,-0.095993109,-0.44,0.08,7.52,0,0,0,1743569204.7419636
441,-0.176714587,0.010908308,-0.052359878,-0.31,0.1,7.44,0,0,0,1743569204.754861
442,-0.214893664,0.058904862,-0.045814893,-0.54,-0.24,7.7,0,0,0,1743569204.7701032
443,-0.208348679,0.058904862,-0.073085662,-0.31,0.05,7.67,0,0,0,1743569204.783193
444,-0.073085662,0.016362462,-0.038179077,-0.37,0.02,7.6,0,0,0,1743569204.7967207
445,-0.044724062,-0.013089969,-0.017453293,-0.16,0.07,6.97,0,0,0,1743569204.8122127
446,-0.086175632,0.170169602,0.016362462,-0.25,-0.12,7.14,0,0,0,1743569204.8251152
447,-0.082903139,0.254163572,0.033815754,-0.3,-0.31,7.72,0,0,0,1743569205
448,-0.010908308,0.275980188,0.030543262,-0.07,0.12,8.02,0,0,0,1743569204.8528683
449,0.11126474,0.210530341,0.056723201,-0.09,0.24,7.94,0,0,0,1743569204.8657649
450,0.107992247,0.199622033,0.077448986,0.06,0.32,7.94,0,0,0,1743569204.8786654
451,0.113446401,0.260708557,0.107992247,-0.1,0.38,8.06,0,0,0,1743569204.892105
452,0.131990525,0.424333174,0.130899694,-0.02,0.2,8.47,0,0,0,1743569204.9050016
453,0.190895387,0.465784744,0.138535509,-0.24,0.62,9.23,0,0,0,1743569204.920555
454,0.15380714,0.406879882,0.186532064,-0.57,0,10.17,0,0,0,1743569204.9337182
455,0.319613419,0.271616865,0.234528618,-0.49,0.45,9.62,0,0,0,1743569204.9479806
456,0.29343348,0.233437787,0.237801111,-0.97,-0.04,10.59,0,0,0,1743569204.9626923
457,0.359974158,0.16689711,0.18107791,-0.98,0.29,10.5,0,0,0,1743569204.975585
458,0.322885912,0.155988802,0.15380714,-0.9,0.36,10.77,0,0,0,1743569204.988478
459,0.234528618,0.203985356,0.145080494,-1.07,0.35,10.95,0,0,0,1743569205.0029423
460,-0.0283616,0.044724062,0.128718032,-1.07,0.28,10.42,0,0,0,1743569205.0161512
461,-0.157079633,0.080721478,0.133081355,-1.14,0.16,10.44,0,0,0,1743569205.029044
462,-0.183259571,0.06981317,0.116718894,-1.15,0.18,9.82,0,0,0,1743569205.042126
463,-0.112355571,0.09817477,0.113446401,-1.16,0.17,9.86,0,0,0,1743569205.055022
464,-0.051269047,0.117809725,0.068722339,-0.94,0.5,9.98,0,0,0,1743569205.070888
465,0.006544985,-0.005454154,0.026179939,-1.26,0.05,10,0,0,0,1743569205.084019
466,0.044724062,-0.104719755,-0.02727077,-1.1,0.29,9.58,0,0,0,1743569205.0987017
467,0.086175632,-0.099265601,-0.045814893,-1.27,0.2,9.24,0,0,0,1743569205.1129408
468,0.061086524,0.020725785,-0.045814893,-0.95,0.34,10.07,0,0,0,1743569205.1260297
469,0.054541539,0.124354709,-0.025089108,-1.35,0.03,10.89,0,0,0,1743569205.1389394
470,0.020725785,0.001090831,-0.006544985,-1.27,0,10.63,0,0,0,1743569205.1530716
471,-0.008726646,-0.071994832,-0.05563237,-1.19,0.1,10.52,0,0,0,1743569205.1667259
472,-0.056723201,-0.023998277,-0.073085662,-1.26,0.01,10.76,0,0,0,1743569205.1796465
473,-0.094902278,-0.004363323,-0.100356432,-0.95,0.38,11.17,0,0,0,1743569205.1932526
474,-0.134172186,-0.076358155,-0.138535509,-0.8,0.51,10.88,0,0,0,1743569205.2071187
475,-0.198531202,-0.116718894,-0.115628063,-0.72,0.49,10.74,0,0,0,1743569205.2223403
476,-0.210530341,-0.182168741,-0.095993109,-0.7,0.33,10.54,0,0,0,1743569205.2352352
477,-0.207257849,-0.197440372,-0.079630647,-0.69,0.22,10.65,0,0,0,1743569205.2511463
478,-0.130899694,-0.416697359,-0.087266463,-0.71,0.12,9.53,0,0,0,1743569205.2640412
479,-0.134172186,-0.478874714,-0.101447263,-0.79,0.28,8.89,0,0,0,1743569205.2769299
480,-0.199622033,-0.429787328,-0.103628924,-0.68,0.12,8.54,0,0,0,1743569205.2898228
481,-0.143989663,-0.253072742,-0.104719755,-0.53,0.22,8.33,0,0,0,1743569205.303443
482,-0.124354709,-0.176714587,-0.087266463,-0.53,0.22,8.32,0,0,0,1743569205.3176522
483,-0.113446401,-0.116718894,-0.081812309,-0.68,0.08,8.37,0,0,0,1743569205.330548
484,-0.15271631,-0.013089969,-0.073085662,-0.59,0.12,8.9,0,0,0,1743569205.3437245
485,-0.113446401,-0.02727077,-0.071994832,-0.66,0.14,9.01,0,0,0,1743569205.3582642
486,-0.066540678,-0.112355571,-0.064359016,-0.93,-0.23,8.75,0,0,0,1743569205.3727942
487,0.04145157,-0.199622033,-0.059995693,-0.96,-0.18,8.43,0,0,0,1743569205.385691
488,0.046905724,-0.161442956,-0.086175632,-0.95,-0.2,8.28,0,0,0,1743569205.4014177
489,-0.015271631,0.023998277,-0.06981317,-0.56,0.54,8.61,0,0,0,1743569205.4143157
490,0.018544123,0.045814893,-0.04145157,-0.28,0.79,8.57,0,0,0,1743569205.4272127
491,-0.021816616,0.05563237,0.010908308,-0.45,0.51,8.61,0,0,0,1743569205.4401047
492,-0.054541539,0.063268185,0.026179939,-0.66,-0.04,8.59,0,0,0,1743569205.4535863
493,-0.06981317,0.113446401,0.009817477,-0.59,-0.03,8.93,0,0,0,1743569205.4681876
494,-0.039269908,0.107992247,-0.006544985,-0.63,-0.04,9.19,0,0,0,1743569205.4813118
495,-0.034906585,0.005454154,0.019634954,-0.52,0.01,8.24,0,0,0,1743569205.4942102
496,-0.057814031,0.064359016,0.039269908,-0.55,0.09,8.01,0,0,0,1743569205.509595
497,-0.102538094,0.274889357,0.065449847,-0.61,0,8.47,0,0,0,1743569205.5233672
498,-0.08399397,0.322885912,0.054541539,-0.53,0.15,8.64,0,0,0,1743569205.5362575
499,-0.054541539,0.30652345,0.061086524,-0.4,0.29,8.56,0,0,0,1743569205.5516977
500,-0.002181662,0.270526034,0.105810586,-0.67,-0.13,9.08,0,0,0,1743569205.5646105
501,-0.017453293,0.303250958,0.129808863,-0.81,-0.27,9.57,0,0,0,1743569205.5775256
502,0.022907446,0.212712003,0.116718894,-0.9,-0.26,9.6,0,0,0,1743569205.5906978
503,0.018544123,0.140717171,0.104719755,-0.75,0.22,8.89,0,0,0,1743569205.603639
504,-0.015271631,0.16689711,0.146171325,-0.56,0.16,9.08,0,0,0,1743569205.6184828
505,0.019634954,0.18107791,0.135263017,-0.64,0.23,9.33,0,0,0,1743569205.6315706
506,0.089448124,0.173442094,0.080721478,-0.66,0.15,9.76,0,0,0,1743569205.6444666
507,0.126536371,0.09708394,0.077448986,-0.85,0,9.73,0,0,0,1743569205.6603148
508,0.082903139,0.045814893,0.116718894,-0.84,0.04,9.27,0,0,0,1743569205.6736743
509,0.039269908,0.105810586,0.123263878,-0.8,-0.12,9.67,0,0,0,1743569205.6865714
510,0.045814893,0.137444679,0.122173048,-0.99,0.07,9.89,0,0,0,1743569205.7016907
511,-0.066540678,0.038179077,0.142898833,-1.09,-0.07,9.64,0,0,0,1743569205.7147548
512,-0.107992247,0.030543262,0.142898833,-1.11,0.1,9.44,0,0,0,1743569205.7276585
513,-0.127627202,0.093811447,0.129808863,-1.18,-0.09,10.09,0,0,0,1743569205.740786
514,-0.053450708,0,0.140717171,-1.17,-0.27,9.74,0,0,0,1743569205.753683
515,-0.031634093,0.051269047,0.113446401,-1.32,-0.49,9.94,0,0,0,1743569205.769013
516,0.051269047,0.051269047,0.054541539,-1.33,-0.39,10.31,0,0,0,1743569205.782129
517,0.104719755,0.029452431,-0.029452431,-1.37,-0.28,10.51,0,0,0,1743569205.7953176
518,0.100356432,-0.029452431,-0.076358155,-1.07,0.28,10.34,0,0,0,1743569205.8110187
519,-0.006544985,-0.080721478,-0.040360739,-1.26,-0.21,10.28,0,0,0,1743569205.8238735
520,0.013089969,-0.080721478,-0.058904862,-1.13,-0.07,10.21,0,0,0,1743569205.8367682
521,-0.002181662,-0.037088247,-0.05563237,-1.17,-0.18,10.86,0,0,0,1743569205.8517942
522,0.022907446,-0.12544554,-0.056723201,-0.94,0.03,10.78,0,0,0,1743569205.8646874
523,-0.022907446,-0.157079633,-0.047996554,-0.86,0,10.57,0,0,0,1743569205.8775883
524,-0.058904862,-0.176714587,-0.05563237,-0.78,0.05,10.44,0,0,0,1743569205.8910813
525,-0.0283616,-0.176714587,-0.099265601,-0.76,0,10.7,0,0,0,1743569205.903977
526,0.023998277,-0.26507188,-0.103628924,-0.59,0.26,10.4,0,0,0,1743569205.9195113
527,0.038179077,-0.352338343,-0.088357293,-0.57,0.12,9.85,0,0,0,1743569205.9326591
528,-0.115628063,-0.382881605,-0.034906585,-0.66,-0.14,9.74,0,0,0,1743569206
529,-0.100356432,-0.353429174,-0.061086524,-0.6,-0.13,9.6,0,0,0,1743569205.9616332
530,-0.073085662,-0.368700804,-0.11126474,-0.6,-0.09,9.41,0,0,0,1743569205.9745307
531,-0.104719755,-0.333794219,-0.112355571,-0.66,-0.2,9.06,0,0,0,1743569205.9874268
532,-0.184350402,-0.261799388,-0.113446401,-0.67,-0.25,9.07,0,0,0,1743569206.0019352
533,-0.12544554,-0.186532064,-0.141808002,-0.55,0.13,8.89,0,0,0,1743569206.015005
534,-0.077448986,-0.162533787,-0.104719755,-0.59,-0.2,9.12,0,0,0,1743569206.027874
535,0.034906585,-0.172351264,-0.079630647,-0.71,-0.14,8.98,0,0,0,1743569206.0409467
536,0.137444679,-0.173442094,-0.090538955,-0.79,0,8.81,0,0,0,1743569206.0538435
537,0.053450708,-0.172351264,-0.077448986,-0.67,-0.21,9.02,0,0,0,1743569206.0682518
538,0.013089969,-0.13962634,-0.077448986,-0.73,-0.02,9.16,0,0,0,1743569206.0813646
539,-0.004363323,-0.221438649,-0.049087385,-0.49,0.22,8.28,0,0,0,1743569206.0942602
540,-0.077448986,-0.221438649,-0.015271631,-0.45,0.19,7.93,0,0,0,1743569206.1101649
541,-0.062177355,0.003272492,-0.006544985,-0.48,0.13,8.13,0,0,0,1743569206.123304
542,-0.053450708,0.050178216,-0.005454154,-0.45,0.11,8.67,0,0,0,1743569206.1361969
543,-0.045814893,0.032724923,-0.013089969,-0.5,0.2,8.43,0,0,0,1743569206.1511862
544,0.011999139,-0.091629786,0.008726646,-0.36,0.33,7.72,0,0,0,1743569206.1640804
545,0.002181662,-0.052359878,0.006544985,-0.37,0.3,7.52,0,0,0,1743569206.1769729
546,-0.023998277,0.023998277,0.018544123,-0.4,0.16,7.47,0,0,0,1743569206.190496
547,-0.038179077,0.186532064,0.046905724,-0.43,-0.09,8.07,0,0,0,1743569206.2034016
548,-0.025089108,0.171260433,0.047996554,-0.48,-0.03,7.97,0,0,0,1743569206.218673
549,-0.030543262,0.162533787,0.063268185,-0.52,-0.2,8.37,0,0,0,1743569206.2317502
550,0.065449847,0.218166156,0.051269047,-0.47,-0.03,8.13,0,0,0,1743569206.2450085
551,0.074176493,0.248709418,0.054541539,-0.34,0,8.24,0,0,0,1743569206.2607083
552,0.131990525,0.375245789,0.056723201,-0.36,0.11,9.42,0,0,0,1743569206.2736075
553,0.174532925,0.37633662,0.047996554,-0.43,0.19,9.88,0,0,0,1743569206.2864974
554,0.191986218,0.291251819,0.066540678,-0.54,0.06,9.31,0,0,0,1743569206.3013563
555,0.185441233,0.112355571,0.085084801,-0.6,0.04,9.18,0,0,0,1743569206.3142583
556,0.142898833,0.169078771,0.079630647,-0.65,0.05,9.24,0,0,0,1743569206.3271565
557,0.119991386,0.234528618,0.070904001,-0.57,0.22,9.39,0,0,0,1743569206.3402638
558,0.154897971,0.241073603,0.091629786,-0.7,0.12,10,0,0,0,1743569206.353159
559,0.176714587,0.283616003,0.065449847,-0.9,0.08,10.59,0,0,0,1743569206.3682878
560,0.194167879,0.235619449,0.064359016,-1.07,0.05,10.59,0,0,0,1743569206.3813732
561,0.16689711,0.074176493,0.043633231,-1.14,0.13,10.34,0,0,0,1743569206.3942678
562,0.129808863,0.02727077,0.02727077,-1.05,0.25,10.04,0,0,0,1743569206.4102426
563,0.078539816,0.067631509,0.031634093,-1.14,0.02,10.72,0,0,0,1743569206.4231439
564,0.053450708,-0.025089108,0.034906585,-1.11,0.02,10.47,0,0,0,1743569206.4360402
565,0.040360739,-0.043633231,0.015271631,-1.16,-0.04,9.91,0,0,0,1743569206.4510114
566,-0.008726646,0.006544985,-0.006544985,-1.08,0.07,9.87,0,0,0,1743569206.4640546
567,-0.047996554,0.044724062,-0.003272492,-0.99,0.16,9.99,0,0,0,1743569206.4769518
568,-0.091629786,0.063268185,0.011999139,-1,-0.18,10.52,0,0,0,1743569206.4905148
569,0.039269908,-0.085084801,-0.032724923,-0.82,0.15,10.27,0,0,0,1743569206.5034142
570,0.025089108,-0.126536371,-0.033815754,-0.78,0.15,10.07,0,0,0,1743569206.5191436
571,0.013089969,-0.101447263,-0.070904001,-0.8,0.15,10.32,0,0,0,1743569206.5322955
572,-0.021816616,-0.113446401,-0.074176493,-0.63,0.2,10.23,0,0,0,1743569206.5451925
573,-0.040360739,-0.100356432,-0.076358155,-0.7,0.15,10.22,0,0,0,1743569206.560653
574,-0.047996554,-0.135263017,-0.066540678,-0.62,0.26,10.07,0,0,0,1743569206.5735793
575,-0.09817477,-0.140717171,-0.056723201,-0.61,0.25,10.03,0,0,0,1743569206.586495
576,-0.126536371,-0.137444679,-0.051269047,-0.6,0.19,10,0,0,0,1743569206.6011884
577,-0.15271631,-0.114537232,-0.045814893,-0.64,0.11,10.23,0,0,0,1743569206.6140864
578,-0.101447263,-0.16689711,-0.044724062,-0.8,-0.03,10.43,0,0,0,1743569206.6269882
579,-0.054541539,-0.290160988,-0.044724062,-0.98,-0.17,9.84,0,0,0,1743569206.6400642
580,-0.026179939,-0.337066712,-0.077448986,-1.13,-0.07,9.22,0,0,0,1743569206.6529622
581,-0.119991386,-0.296705973,-0.090538955,-0.91,0,9,0,0,0,1743569206.668312
582,-0.146171325,-0.200712864,-0.102538094,-1.02,-0.15,9,0,0,0,1743569206.6814022
583,-0.143989663,-0.100356432,-0.103628924,-1.06,-0.3,9.06,0,0,0,1743569206.6947808
584,-0.147262156,-0.074176493,-0.130899694,-0.81,-0.06,9.11,0,0,0,1743569206.710357
585,-0.201803695,-0.073085662,-0.134172186,-0.82,-0.14,9.23,0,0,0,1743569206.7232556
586,-0.18107791,-0.109083078,-0.148352986,-0.79,-0.05,9.05,0,0,0,1743569206.7361672
587,-0.163624617,-0.129808863,-0.154897971,-0.64,-0.03,8.47,0,0,0,1743569206.7509758
588,-0.106901417,-0.12544554,-0.12544554,-0.67,-0.15,8.43,0,0,0,1743569206.7638733
589,-0.070904001,-0.091629786,-0.114537232,-0.42,0.2,8.25,0,0,0,1743569206.7767746
590,-0.078539816,-0.026179939,-0.116718894,-0.38,0.16,8.43,0,0,0,1743569206.7902272
591,-0.046905724,0.001090831,-0.107992247,-0.27,0.19,8.53,0,0,0,1743569206.8031256
592,-0.008726646,0.006544985,-0.099265601,-0.23,0.2,8.62,0,0,0,1743569206.818722
593,0.086175632,-0.058904862,-0.082903139,-0.21,0.13,8.35,0,0,0,1743569206.8318524
594,0.095993109,-0.061086524,-0.065449847,-0.25,0.07,7.93,0,0,0,1743569206.8459172
595,0.042542401,-0.026179939,-0.038179077,-0.28,0,8.04,0,0,0,1743569206.8607905
596,0.023998277,0.105810586,-0.020725785,-0.27,0.07,8.26,0,0,0,1743569206.8736923
597,-0.006544985,0.134172186,-0.001090831,-0.19,-0.02,8.67,0,0,0,1743569206.8867862
598,-0.026179939,0.130899694,0.010908308,-0.13,-0.01,8.46,0,0,0,1743569206.9011815
599,-0.044724062,0.113446401,0.030543262,-0.05,0.1,8.48,0,0,0,1743569206.9146202
600,-0.023998277,0.117809725,0.049087385,-0.02,0.1,8.47,0,0,0,1743569206.9275138
601,0.029452431,0.113446401,0.073085662,-0.05,-0.01,8.48,0,0,0,1743569206.940611
602,0.105810586,0.146171325,0.093811447,-0.07,0.12,8.69,0,0,0,1743569206.9535053
603,0.170169602,0.154897971,0.103628924,-0.19,0.04,8.81,0,0,0,1743569206.969427
604,0.208348679,0.167987941,0.127627202,-0.18,0.2,8.9,0,0,0,1743569206.9823217
605,0.219256987,0.202894526,0.130899694,-0.26,0.23,9.54,0,0,0,1743569206.9972725
606,0.206167018,0.189804556,0.162533787,-0.48,0,9.2,0,0,0,1743569207.0112965
607,0.179987079,0.078539816,0.172351264,-0.72,0.01,8.97,0,0,0,1743569207.0241947
608,0.198531202,0.114537232,0.169078771,-0.47,0.22,9.04,0,0,0,1743569207.0370889
609,0.188713725,0.175623756,0.143989663,-0.64,0.38,9.54,0,0,0,1743569207.0512006
610,0.210530341,0.194167879,0.162533787,-0.77,0.4,9.5,0,0,0,1743569207.0648885
611,0.213802833,0.178896248,0.154897971,-0.57,0.54,9.42,0,0,0,1743569207.0777829
612,0.182168741,0.226892803,0.151625479,-1.22,-0.07,10.5,0,0,0,1743569207.0912738
613,0.15380714,0.100356432,0.199622033,-1.23,-0.23,10.16,0,0,0,1743569207.1050491
614,0.158170463,0.033815754,0.159261294,-1.38,-0.17,10,0,0,0,1743569207.1203759
615,0.163624617,0.140717171,0.080721478,-1.37,-0.03,10.31,0,0,0,1743569207.133277
616,0.178896248,0.155988802,0.062177355,-1.22,0.13,10.51,0,0,0,1743569207.1492517
617,0.126536371,0.088357293,0.05563237,-1.35,0.08,10.93,0,0,0,1743569207.1621575
618,0.080721478,-0.020725785,0.047996554,-1.19,0.18,10.45,0,0,0,1743569207.1750555
619,0.09708394,-0.010908308,0.0141808,-1.22,0.24,10.56,0,0,0,1743569207.187952
620,0.071994832,-0.023998277,-0.02727077,-1.38,0.08,10.46,0,0,0,1743569207.2015524
621,0.02727077,-0.043633231,-0.02727077,-1.32,0.03,10.28,0,0,0,1743569207.2161171
622,-0.043633231,-0.051269047,-0.031634093,-1.27,0.07,10.16,0,0,0,1743569207.229017
623,-0.061086524,-0.046905724,-0.057814031,-1.08,0.11,10.11,0,0,0,1743569207.242005
624,-0.039269908,-0.085084801,-0.061086524,-1,0.25,10.02,0,0,0,1743569207.2568357
625,-0.030543262,-0.102538094,-0.077448986,-0.8,0.5,9.51,0,0,0,1743569207.2711303
626,-0.063268185,-0.116718894,-0.071994832,-0.64,0.57,9.41,0,0,0,1743569207.2840261
627,-0.053450708,-0.08399397,-0.06981317,-0.64,0.48,9.79,0,0,0,1743569207.2995832
628,0.026179939,-0.116718894,-0.057814031,-0.77,0.2,10.17,0,0,0,1743569207.3124971
629,0.020725785,-0.149443817,-0.068722339,-0.75,0.19,10.21,0,0,0,1743569207.3254073
630,0.003272492,-0.196349541,-0.06981317,-0.82,0.16,10.1,0,0,0,1743569207.3383052
631,-0.076358155,-0.231256126,-0.057814031,-0.64,0.26,9.61,0,0,0,1743569207.3516004
632,-0.099265601,-0.15380714,-0.076358155,-0.63,0.29,9.77,0,0,0,1743569207.366063
633,-0.110173909,-0.123263878,-0.088357293,-0.48,0.45,9.87,0,0,0,1743569207.3791926
634,-0.099265601,-0.178896248,-0.02727077,-0.67,0.33,9.55,0,0,0,1743569207.392092
635,-0.12544554,-0.211621172,-0.021816616,-0.58,0.35,9.25,0,0,0,1743569207.4073274
636,-0.163624617,-0.165806279,-0.029452431,-0.75,0.04,9.19,0,0,0,1743569207.421266
637,-0.159261294,-0.063268185,-0.033815754,-0.67,0.1,9.26,0,0,0,1743569207.4341643
638,-0.126536371,-0.056723201,-0.049087385,-0.63,0.16,9.25,0,0,0,1743569207.4496706
639,-0.149443817,-0.137444679,-0.046905724,-0.58,0.21,8.5,0,0,0,1743569207.4625695
640,-0.171260433,-0.12544554,-0.050178216,-0.57,0.29,8.34,0,0,0,1743569207.4756353
641,-0.20943951,-0.063268185,-0.037088247,-0.62,0.19,8.36,0,0,0,1743569207.4891567
642,-0.221438649,-0.0141808,-0.010908308,-0.72,-0.03,8.1,0,0,0,1743569207.5020545
643,-0.149443817,-0.04145157,0.005454154,-0.55,0.04,7.84,0,0,0,1743569207.517372
644,-0.087266463,-0.030543262,-0.007635815,-0.39,0.27,8.19,0,0,0,1743569207.5305061
645,0.054541539,-0.070904001,-0.0283616,-0.31,0.25,7.8,0,0,0,1743569207.543881
646,0.117809725,-0.117809725,-0.031634093,-0.26,0.25,7.43,0,0,0,1743569207.5594435
647,0.074176493,0.15271631,-0.019634954,-0.54,-0.13,8.39,0,0,0,1743569207.5723681
648,0.051269047,0.254163572,-0.009817477,-0.66,-0.21,9.06,0,0,0,1743569207.5852747
649,0.075267324,0.244346095,-0.003272492,-0.67,-0.01,10.1,0,0,0,1743569207.6000774
650,0.138535509,0.035997416,-0.011999139,-0.62,0.02,9.76,0,0,0,1743569207.612973
651,0.164715448,-0.070904001,-0.020725785,-0.55,0.13,9.36,0,0,0,1743569207.6258743
652,0.165806279,-0.023998277,-0.042542401,-0.51,0.22,9.61,0,0,0,1743569207.6390257
653,0.157079633,0.16689711,-0.050178216,-0.57,0.33,10.36,0,0,0,1743569207.6518729
654,0.09708394,0.140717171,-0.020725785,-0.67,0.28,10.46,0,0,0,1743569207.6672053
655,0.013089969,0.099265601,0.013089969,-0.61,0.29,10.45,0,0,0,1743569207.6803482
656,-0.053450708,-0.005454154,0.010908308,-0.61,0.32,10.46,0,0,0,1743569207.694098
657,-0.043633231,-0.034906585,-0.001090831,-0.57,0.44,10.09,0,0,0,1743569207.709329
658,0.033815754,-0.109083078,0.0141808,-0.82,0.12,9.57,0,0,0,1743569207.7222278
659,0.016362462,-0.074176493,0.002181662,-0.88,0.1,9.5,0,0,0,1743569207.7351255
660,-0.030543262,-0.025089108,-0.016362462,-0.85,0.16,9.29,0,0,0,1743569207.7498388
661,-0.16689711,-0.011999139,0.0141808,-0.79,0.06,9.22,0,0,0,1743569207.7627394
662,-0.140717171,0.006544985,-0.009817477,-0.71,0.15,9.28,0,0,0,1743569207.7756388
663,-0.087266463,0.008726646,-0.019634954,-0.82,0.02,9.44,0,0,0,1743569207.7893615
664,0.047996554,-0.103628924,-0.029452431,-0.76,0,9.06,0,0,0,1743569207.8022754
665,0.037088247,-0.078539816,-0.038179077,-0.69,0.07,9,0,0,0,1743569207.8181922
666,-0.004363323,0.004363323,-0.05563237,-0.56,0.16,9.05,0,0,0,1743569207.8312306
667,-0.018544123,0.05563237,-0.068722339,-0.46,0.32,9.31,0,0,0,1743569207.8458767
668,-0.02727077,0.073085662,-0.064359016,-0.56,0.11,9.47,0,0,0,1743569207.8602262
669,-0.02727077,-0.047996554,-0.042542401,-0.54,0.11,9.22,0,0,0,1743569207.8731232
670,-0.010908308,-0.04145157,-0.042542401,-0.45,0.25,9.2,0,0,0,1743569207.8860292
671,-0.011999139,0.002181662,-0.037088247,-0.39,0.25,9.14,0,0,0,1743569207.9002151
672,0.004363323,-0.003272492,0,-0.3,0.3,9,0,0,0,1743569207.913117
673,-0.053450708,0.053450708,0.011999139,-0.22,0.39,9.5,0,0,0,1743569207.9260168
674,-0.026179939,0.090538955,-0.003272492,-0.24,0.45,9.75,0,0,0,1743569207.9391537
675,0.043633231,-0.025089108,0.026179939,-0.25,0.5,9.57,0,0,0,1743569207.9520497
676,0.08399397,-0.057814031,0.010908308,-0.11,1.06,9.32,0,0,0,1743569207.9679096
677,0.206167018,-0.0283616,-0.022907446,0.14,1.46,9.14,0,0,0,1743569207.9810393
678,0.244346095,0.073085662,-0.040360739,0.11,1.28,10.23,0,0,0,1743569207.9959517
679,0.328340066,0.123263878,-0.019634954,0.02,1.1,10.6,0,0,0,1743569208.0100784
680,0.284706834,0,0.051269047,-0.07,0.85,10.55,0,0,0,1743569208.022999
681,0.282525173,-0.054541539,0.023998277,-0.05,1.15,10.12,0,0,0,1743569208.0358732
682,0.277071019,-0.061086524,0.029452431,-0.22,0.76,9.97,0,0,0,1743569208.0500321
683,0.182168741,-0.126536371,0.147262156,-0.39,0.55,9.57,0,0,0,1743569208.0641346
684,0.056723201,-0.110173909,0.207257849,-0.57,0.43,9.49,0,0,0,1743569208.0770583
685,0.062177355,-0.100356432,0.185441233,-0.57,0.52,8.81,0,0,0,1743569208.0905986
686,0.025089108,-0.065449847,0.20943951,-0.49,0.34,8.61,0,0,0,1743569208.1049936
687,-0.049087385,0.031634093,0.224711141,-0.43,0.21,9.14,0,0,0,1743569208.1197171
688,0.085084801,0.094902278,0.193077049,-0.64,0.13,9.24,0,0,0,1743569208.1326113
689,0.094902278,0.031634093,0.219256987,-0.76,-0.17,9.38,0,0,0,1743569208.148465
690,0.175623756,-0.080721478,0.213802833,-1.06,-0.34,8.87,0,0,0,1743569208.1613593
691,0.167987941,-0.113446401,0.227983634,-1.2,-0.46,8.23,0,0,0,1743569208.1742535
692,0.033815754,-0.045814893,0.202894526,-1.24,-0.61,8.6,0,0,0,1743569208.1871464
693,-0.095993109,0.148352986,0.169078771,-1.41,-0.73,9.05,0,0,0,1743569208.2006538
694,-0.053450708,0.114537232,0.143989663,-1.59,-0.73,9.07,0,0,0,1743569208.2150657
695,-0.054541539,0.091629786,0.163624617,-1.2,-0.49,8.75,0,0,0,1743569208.2282035
696,-0.188713725,0.080721478,0.141808002,-1.62,-1.04,8.9,0,0,0,1743569208.2411067
697,-0.127627202,0.103628924,0.073085662,-1.55,-0.79,9.08,0,0,0,1743569208.255377
698,-0.067631509,0.114537232,-0.005454154,-1.59,-0.57,9.1,0,0,0,1743569208.2698596
699,-0.025089108,-0.025089108,-0.061086524,-1.44,-0.36,8.33,0,0,0,1743569208.2827559
700,-0.056723201,-0.049087385,-0.068722339,-1.36,-0.36,8.32,0,0,0,1743569208.2984276
701,-0.163624617,0.127627202,-0.080721478,-1.15,-0.09,8.93,0,0,0,1743569208.3113208
702,-0.122173048,0.136353848,-0.101447263,-1.04,0.08,8.94,0,0,0,1743569208.3242147
703,-0.143989663,0.142898833,-0.078539816,-0.99,-0.04,9.28,0,0,0,1743569208.3371139
704,-0.032724923,0.094902278,-0.057814031,-0.9,0.07,9.36,0,0,0,1743569208.3504004
705,0.008726646,0.052359878,-0.070904001,-0.92,0.02,9.27,0,0,0,1743569208.3648036
706,0.026179939,0.058904862,-0.08399397,-0.92,0,9.32,0,0,0,1743569208.3779297
707,0.011999139,0.068722339,-0.092720617,-0.94,0.03,9.31,0,0,0,1743569208.390825
708,-0.073085662,0.109083078,-0.073085662,-0.93,0.07,9.46,0,0,0,1743569208.4047937
709,-0.124354709,0.145080494,-0.081812309,-1.02,0.11,9.69,0,0,0,1743569208.4194913
710,-0.213802833,0.116718894,-0.066540678,-1.04,0.08,9.64,0,0,0,1743569208.4323847
711,-0.154897971,0.081812309,-0.091629786,-1.14,-0.01,9.61,0,0,0,1743569208.4481676
712,0.006544985,0.042542401,-0.15380714,-0.88,0.38,9.71,0,0,0,1743569208.4610639
713,-0.021816616,0.031634093,-0.140717171,-0.82,0.51,9.67,0,0,0,1743569208.4739647
714,-0.068722339,0.032724923,-0.134172186,-0.69,0.67,9.72,0,0,0,1743569208.4868608
715,-0.126536371,0.065449847,-0.162533787,-0.49,1.3,9.66,0,0,0,1743569208.500352
716,-0.102538094,0.040360739,-0.150534648,-0.41,1.36,9.5,0,0,0,1743569208.5149426
717,-0.145080494,0.0283616,-0.103628924,-0.45,1.22,9.44,0,0,0,1743569208.5280895
718,-0.130899694,0.092720617,-0.081812309,-0.41,1.2,9.74,0,0,0,1743569208.540984
719,-0.030543262,0.129808863,-0.129808863,-0.25,1.35,10.29,0,0,0,1743569208.5565164
720,0.19525871,-0.044724062,-0.15271631,-0.48,1.16,10.18,0,0,0,1743569208.5701873
721,0.202894526,-0.170169602,-0.15271631,-0.43,1.09,9.67,0,0,0,1743569208.5830956
722,0.118900555,-0.174532925,-0.145080494,-0.33,1.01,9.49,0,0,0,1743569208.598399
723,-0.0283616,-0.005454154,-0.075267324,-0.11,1.09,9.98,0,0,0,1743569208.6112962
724,-0.039269908,0.043633231,-0.058904862,-0.12,1.11,10.15,0,0,0,1743569208.6241934
725,-0.053450708,0.020725785,-0.022907446,-0.18,0.96,10.14,0,0,0,1743569208.6370873
726,-0.022907446,-0.021816616,-0.003272492,-0.26,0.66,10.18,0,0,0,1743569208.6503918
727,0.017453293,-0.070904001,0.002181662,-0.1,0.61,10.02,0,0,0,1743569208.6655025
728,0.051269047,-0.088357293,-0.009817477,-0.13,0.7,9.98,0,0,0,1743569209
729,0.022907446,-0.082903139,0.020725785,-0.22,0.59,9.99,0,0,0,1743569208.6914706
730,-0.023998277,-0.104719755,0.050178216,-0.27,0.44,9.89,0,0,0,1743569208.7073543
731,-0.046905724,-0.16689711,0.075267324,-0.3,0.63,9.08,0,0,0,1743569208.7203956
732,-0.074176493,-0.126536371,0.09708394,-0.37,0.5,9.06,0,0,0,1743569208.7332892
733,-0.044724062,-0.109083078,0.124354709,-0.56,0.11,8.76,0,0,0,1743569208.7482738
734,-0.053450708,-0.035997416,0.155988802,-0.72,0.01,8.97,0,0,0,1743569208.7611666
735,-0.039269908,0.008726646,0.140717171,-0.94,-0.21,9.18,0,0,0,1743569208.7740617
736,-0.04145157,-0.034906585,0.133081355,-1.01,-0.22,8.87,0,0,0,1743569208.7872133
737,0.015271631,-0.134172186,0.09708394,-1.07,-0.19,8.21,0,0,0,1743569208.8001254
738,0.005454154,-0.089448124,0.106901417,-1.12,-0.29,8.22,0,0,0,1743569208.8149645
739,0.026179939,0.002181662,0.088357293,-1.15,-0.05,8.78,0,0,0,1743569208.8280559
740,0.023998277,0.058904862,0.06981317,-0.9,0,9.28,0,0,0,1743569209
741,0.004363323,0.039269908,0.071994832,-1.41,-0.75,8.46,0,0,0,1743569208.8567972
742,0.129808863,-0.112355571,0.059995693,-1.25,-0.47,8.14,0,0,0,1743569208.8701673
743,0.104719755,0.09708394,0.040360739,-1.27,-0.67,8.81,0,0,0,1743569208.8830695
744,0.023998277,0.189804556,0.033815754,-1.4,-0.9,9.38,0,0,0,1743569208.8981059
745,0.086175632,0.103628924,-0.011999139,-1.57,-1.01,9.55,0,0,0,1743569208.9110057
746,0.082903139,0.067631509,-0.034906585,-1.53,-1.03,9.55,0,0,0,1743569208.923872
747,0.078539816,0.011999139,-0.081812309,-1.24,-0.55,9.58,0,0,0,1743569208.9367666
748,-0.018544123,-0.045814893,-0.095993109,-1.11,-0.37,9.18,0,0,0,1743569208.9498894
749,-0.042542401,-0.054541539,-0.103628924,-0.85,0.01,8.72,0,0,0,1743569208.9646215
750,-0.051269047,-0.038179077,-0.09708394,-0.76,0.08,8.55,0,0,0,1743569208.977691
751,-0.059995693,0.053450708,-0.068722339,-0.74,0.13,8.68,0,0,0,1743569208.9905865
752,-0.058904862,0.104719755,-0.051269047,-0.76,-0.01,8.99,0,0,0,1743569209.0062423
753,-0.009817477,0.170169602,-0.0283616,-0.99,-0.21,9.71,0,0,0,1743569209.0199187
754,-0.025089108,0.118900555,-0.02727077,-1,-0.12,9.81,0,0,0,1743569209.0328107
755,-0.011999139,0.043633231,-0.046905724,-0.93,0.04,9.45,0,0,0,1743569209.0479908
756,-0.011999139,-0.046905724,-0.066540678,-0.87,0.17,9.25,0,0,0,1743569209.0608847
757,-0.029452431,-0.032724923,-0.073085662,-0.8,0.24,9.01,0,0,0,1743569209.073778
758,-0.0283616,0.010908308,-0.058904862,-0.76,0.19,9.11,0,0,0,1743569209.0870245
759,0.010908308,0.133081355,-0.035997416,-1,-0.1,9.87,0,0,0,1743569209.099876
760,0.022907446,0.114537232,-0.030543262,-1,-0.15,9.95,0,0,0,1743569209.1149144
761,-0.043633231,0.088357293,-0.044724062,-1.03,-0.22,10.14,0,0,0,1743569209.127987
762,-0.067631509,0.0283616,-0.16689711,-0.8,0.39,9.87,0,0,0,1743569209.1408913
763,-0.031634093,-0.059995693,-0.193077049,-0.69,0.64,9.43,0,0,0,1743569209.1568203
764,0.021816616,-0.074176493,-0.160352125,-0.56,0.87,9,0,0,0,1743569209.169928
765,0.002181662,0.001090831,-0.131990525,-0.43,0.92,9.2,0,0,0,1743569209.1828227
766,0,0.075267324,-0.095993109,-0.46,0.63,9.41,0,0,0,1743569209.1977935
767,-0.008726646,0.15271631,-0.038179077,-0.63,0.69,10.08,0,0,0,1743569209.210689
768,0.047996554,0.118900555,-0.035997416,-0.61,0.72,10.1,0,0,0,1743569209.2235847
769,0.035997416,0.023998277,-0.026179939,-0.68,0.79,9.88,0,0,0,1743569209.2371163
770,0.039269908,-0.103628924,-0.056723201,-0.49,1.24,9.07,0,0,0,1743569209.2500226
771,0.058904862,-0.079630647,-0.054541539,-0.45,1.07,9.17,0,0,0,1743569209.2655582
772,0.066540678,-0.008726646,-0.052359878,-0.45,0.91,9.66,0,0,0,1743569209.2786407
773,-0.003272492,0.114537232,-0.019634954,-0.31,0.61,10.13,0,0,0,1743569209.2922757
774,-0.053450708,0.171260433,-0.013089969,-0.51,0.64,10.62,0,0,0,1743569209.3074832
775,-0.063268185,0.037088247,0.002181662,-0.41,0.64,10.34,0,0,0,1743569209.3203797
776,-0.09817477,-0.05563237,0.025089108,-0.46,0.52,10.07,0,0,0,1743569209.3332744
777,-0.073085662,-0.104719755,0.040360739,-0.45,0.51,9.75,0,0,0,1743569209.3480072
778,-0.079630647,-0.050178216,0.053450708,-0.42,0.54,10.04,0,0,0,1743569209.3608987
779,-0.030543262,-0.037088247,0.058904862,-0.5,0.47,9.86,0,0,0,1743569209.3737965
780,0.003272492,-0.11126474,0.088357293,-0.53,0.43,9.5,0,0,0,1743569209
781,-0.08399397,-0.118900555,0.141808002,-0.57,0.28,8.74,0,0,0,1743569209.4001527
782,-0.085084801,-0.076358155,0.138535509,-0.64,0.28,8.76,0,0,0,1743569209.4159575
783,-0.045814893,0.046905724,0.122173048,-0.92,0.2,9.42,0,0,0,1743569209.4291263
784,-0.053450708,-0.001090831,0.142898833,-0.89,0.08,8.91,0,0,0,1743569209.4435606
785,-0.0141808,-0.129808863,0.155988802,-0.98,-0.29,8.29,0,0,0,1743569209.4581156
786,-0.020725785,-0.032724923,0.16689711,-1.06,-0.38,8.54,0,0,0,1743569209.471016
787,0.0141808,0.059995693,0.141808002,-1.13,-0.43,8.87,0,0,0,1743569209.4838698
788,0.035997416,0.141808002,0.127627202,-1.32,-0.51,9.47,0,0,0,1743569209.4982183
789,0.082903139,0.08399397,0.102538094,-1.39,-0.58,9.47,0,0,0,1743569209.511691
790,0.099265601,0.033815754,0.080721478,-1.43,-0.67,9.44,0,0,0,1743569209.5245912
791,0.076358155,-0.008726646,0.068722339,-1.29,-0.66,9.2,0,0,0,1743569209.5377748
792,-0.061086524,-0.022907446,0.067631509,-1.18,-0.55,9.34,0,0,0,1743569209.5506792
793,-0.045814893,0.009817477,0.035997416,-1.25,-0.56,9.48,0,0,0,1743569209.566367
794,0.046905724,-0.074176493,0.017453293,-1.17,-0.36,9.01,0,0,0,1743569209.5792873
795,0.042542401,-0.053450708,0.015271631,-1.17,-0.38,8.99,0,0,0,1743569209.5937402
796,0.045814893,-0.011999139,0.003272492,-1.22,-0.34,9.44,0,0,0,1743569209.6080866
797,-0.023998277,0.086175632,0.002181662,-1.21,-0.35,9.66,0,0,0,1743569209.6209826
798,-0.080721478,0.09708394,-0.003272492,-1.22,-0.35,9.86,0,0,0,1743569209.6338818
799,-0.068722339,0.054541539,-0.018544123,-1.08,-0.08,9.45,0,0,0,1743569209.6481075
800,-0.029452431,-0.06981317,-0.021816616,-0.98,-0.02,9.25,0,0,0,1743569209.661637
801,-0.021816616,-0.082903139,-0.022907446,-0.91,0,9.01,0,0,0,1743569209.6745336
802,-0.001090831,-0.071994832,-0.019634954,-0.95,-0.2,8.89,0,0,0,1743569209.6885257
803,-0.038179077,0.075267324,-0.0141808,-1.09,-0.3,9.04,0,0,0,1743569209.7024775
804,-0.049087385,0.115628063,-0.010908308,-1.21,-0.28,9.35,0,0,0,1743569209.7176354
805,-0.08399397,0.078539816,-0.047996554,-1.19,-0.28,9.33,0,0,0,1743569209.730529
806,-0.107992247,0.051269047,-0.047996554,-1.3,-0.33,9.23,0,0,0,1743569210
807,-0.099265601,0.032724923,-0.070904001,-1.12,-0.2,9.1,0,0,0,1743569209.7594035
808,-0.067631509,0.047996554,-0.077448986,-1.06,-0.12,9.1,0,0,0,1743569209.7722964
809,-0.017453293,0.04145157,-0.094902278,-1.01,0.05,8.92,0,0,0,1743569209.7851908
810,-0.030543262,0.101447263,-0.085084801,-0.87,0.13,9.51,0,0,0,1743569209.7986834
811,-0.008726646,0.130899694,-0.106901417,-0.69,0.33,9.64,0,0,0,1743569210
812,0.002181662,0.103628924,-0.136353848,-0.69,0.45,9.69,0,0,0,1743569209.826439
813,-0.026179939,0.056723201,-0.117809725,-0.62,0.51,9.53,0,0,0,1743569209.839342
814,-0.039269908,0.09817477,-0.105810586,-0.71,0.6,9.67,0,0,0,1743569209.854616
815,-0.105810586,0.11126474,-0.053450708,-0.7,0.56,10.13,0,0,0,1743569209.8685474
816,-0.025089108,0.044724062,-0.032724923,-0.67,0.69,9.91,0,0,0,1743569209.8814497
817,0.016362462,-0.043633231,-0.034906585,-0.63,0.7,9.58,0,0,0,1743569209.8969002
818,0.050178216,0.005454154,-0.056723201,-0.48,0.79,9.78,0,0,0,1743569209.9097981
819,0.057814031,0.046905724,-0.050178216,-0.45,0.6,10.06,0,0,0,1743569209.9226935
820,0.090538955,0.050178216,-0.037088247,-0.57,0.62,10.31,0,0,0,1743569209.9355938
821,0.103628924,-0.09817477,-0.009817477,-0.72,0.45,9.59,0,0,0,1743569209.948766
822,-0.016362462,-0.109083078,0.030543262,-0.73,0.25,9.47,0,0,0,1743569209.9634066
823,-0.106901417,-0.032724923,0.025089108,-0.63,0.42,9.85,0,0,0,1743569209.9765437
824,-0.092720617,-0.008726646,0.007635815,-0.57,0.43,10.02,0,0,0,1743569209.9894376
825,-0.045814893,-0.090538955,0.018544123,-0.59,0.38,9.49,0,0,0,1743569210.0050569
826,0.031634093,-0.210530341,0.033815754,-0.53,0.31,8.87,0,0,0,1743569210.0187387
827,0.037088247,-0.147262156,0.0283616,-0.52,0.34,8.94,0,0,0,1743569210.0316343
828,0.071994832,-0.059995693,0.009817477,-0.67,0.42,9.51,0,0,0,1743569210.0468073
829,0.031634093,0.015271631,0.033815754,-0.72,0.34,9.54,0,0,0,1743569210.0597017
830,0.008726646,-0.031634093,0.064359016,-0.9,0.07,9.32,0,0,0,1743569210.0725954
831,0.021816616,-0.08399397,0.081812309,-0.89,0.13,9.07,0,0,0,1743569210.0862262
832,0.02727077,-0.063268185,0.064359016,-0.77,0.29,9.11,0,0,0,1743569210.0991204
833,0.047996554,0.003272492,0.062177355,-0.95,0.1,9.41,0,0,0,1743569210.1144867
834,0.013089969,-0.003272492,0.079630647,-0.96,0.32,9.54,0,0,0,1743569210.1276002
835,0.088357293,-0.040360739,0.068722339,-0.93,0.15,9.39,0,0,0,1743569210.1413276
836,0.054541539,-0.073085662,0.082903139,-1.09,-0.15,8.98,0,0,0,1743569210.1565776
837,0.052359878,-0.033815754,0.081812309,-1.11,-0.13,9.26,0,0,0,1743569210.1694744
838,0.047996554,0.02727077,0.091629786,-1.31,-0.42,9.39,0,0,0,1743569210.1823688
839,0.042542401,-0.003272492,0.094902278,-1.17,-0.32,9.51,0,0,0,1743569210.197084
840,-0.026179939,0.026179939,0.049087385,-1.24,-0.43,9.6,0,0,0,1743569210.2099848
841,-0.035997416,-0.026179939,0.032724923,-1.13,-0.35,9.18,0,0,0,1743569210.2228827
842,-0.030543262,-0.070904001,0.006544985,-1.09,-0.3,9.07,0,0,0,1743569210.2359908
843,-0.04145157,0,-0.006544985,-1.22,-0.62,9.52,0,0,0,1743569210.248884
844,-0.044724062,0.017453293,-0.009817477,-1.23,-0.58,9.52,0,0,0,1743569210.2633028
845,-0.064359016,0.007635815,-0.023998277,-1.1,-0.5,9.31,0,0,0,1743569210.2764401
846,-0.05563237,-0.02727077,-0.051269047,-0.94,-0.21,9.16,0,0,0,1743569210.2893372
847,-0.021816616,-0.030543262,-0.056723201,-0.96,-0.17,9.12,0,0,0,1743569210.3052752
848,0.006544985,-0.017453293,-0.029452431,-0.8,0.06,9.16,0,0,0,1743569210.3185756
849,0.020725785,-0.020725785,0.003272492,-0.88,-0.12,8.9,0,0,0,1743569210.3336904
850,0.0141808,-0.051269047,0.015271631,-0.81,0,8.9,0,0,0,1743569210.347627
851,0.050178216,0.017453293,-0.017453293,-0.87,0.18,9.1,0,0,0,1743569210.3606377
852,0.037088247,0.019634954,-0.009817477,-0.79,0.16,9.13,0,0,0,1743569210.3741634
853,0.06981317,0.034906585,-0.005454154,-0.93,0.17,9.39,0,0,0,1743569210.387813
854,0.087266463,0.020725785,-0.007635815,-0.7,0.36,9.5,0,0,0,1743569210.4020197
855,0.040360739,0.043633231,-0.011999139,-0.83,0.27,9.52,0,0,0,1743569210.417073
856,0.017453293,0.008726646,0.025089108,-0.72,0.25,9.51,0,0,0,1743569210.4299884
857,-0.001090831,0.040360739,0.021816616,-0.79,0.3,9.63,0,0,0,1743569210.4457524
858,0.008726646,0.079630647,0.026179939,-0.85,0.18,9.85,0,0,0,1743569210.4586463
859,0.004363323,0.087266463,0.0283616,-0.99,0.07,9.78,0,0,0,1743569210.4715436
860,-0.004363323,0.05563237,0.013089969,-0.85,0.22,9.65,0,0,0,1743569210.4844382
861,-0.046905724,0.06981317,-0.006544985,-0.89,0.23,9.73,0,0,0,1743569210.4979508
862,-0.064359016,0.032724923,0.002181662,-0.81,0.3,9.3,0,0,0,1743569210.512247
863,-0.071994832,0.019634954,0.015271631,-0.75,0.09,9.34,0,0,0,1743569210.5251396
864,-0.09817477,0.04145157,0.043633231,-0.8,-0.07,9.32,0,0,0,1743569210.538181
865,-0.058904862,0.008726646,0.0283616,-0.79,-0.11,9.12,0,0,0,1743569210.5529795
866,-0.04145157,-0.040360739,0.018544123,-0.68,0.02,8.71,0,0,0,1743569210.567307
867,0.04145157,-0.032724923,-0.029452431,-0.68,0.15,8.69,0,0,0,1743569210.580217
868,0.035997416,0.018544123,-0.018544123,-0.74,0.03,8.94,0,0,0,1743569210.5958445
869,0.032724923,0.075267324,0.022907446,-0.88,0.05,9.11,0,0,0,1743569210.6087406
870,-0.008726646,0.058904862,0.038179077,-0.9,-0.06,9.16,0,0,0,1743569211
871,-0.044724062,0.063268185,0.045814893,-0.86,0.02,9.16,0,0,0,1743569210.634536
872,0.025089108,0.070904001,0.005454154,-0.78,0.23,10.06,0,0,0,1743569210.647855
873,0.034906585,0.129808863,-0.004363323,-0.95,0.19,10.68,0,0,0,1743569210.6622555
874,0.11126474,0.086175632,-0.015271631,-1.03,0.22,10.6,0,0,0,1743569210.6754076
875,0.134172186,-0.217075326,-0.015271631,-1.31,-0.05,9.42,0,0,0,1743569210.6883025
876,0.13962634,-0.205076187,-0.033815754,-1.15,0.07,9.16,0,0,0,1743569210.7036915
877,0.052359878,-0.057814031,-0.037088247,-1.05,0.04,9.66,0,0,0,1743569210.7175436
878,0.118900555,-0.020725785,-0.067631509,-0.96,0.13,9.65,0,0,0,1743569210.7304463
879,0.196349541,-0.054541539,-0.081812309,-0.94,0.17,9.7,0,0,0,1743569210.7459376
880,0.355610835,-0.122173048,-0.073085662,-0.93,0.19,9.81,0,0,0,1743569210.7588425
881,0.481056375,-0.155988802,-0.076358155,-0.81,0.16,9.69,0,0,0,1743569210.7717376
882,0.881391272,-0.367609974,-0.0283616,-1.5,-0.11,10,0,0,0,1743569210.7846305
883,0.943568627,-0.429787328,-0.146171325,-0.82,0.62,8.87,0,0,0,1743569210.7978384
884,0.987201858,-0.339248373,-0.135263017,-0.6,0.42,8.96,0,0,0,1743569210.8125198
885,0.957749427,-0.294524311,-0.186532064,-0.65,0.34,9.39,0,0,0,1743569210.825619
886,1.298088631,-0.285797665,-0.308705111,-0.43,1.11,9.61,0,0,0,1743569210.8385136
887,1.769327529,-0.450513113,-0.301069296,-0.73,0.38,10.04,0,0,0,1743569210.854149
888,2.295107966,-0.690495885,-0.414515697,-0.14,1.85,8.77,0,0,0,1743569210.8678246
889,2.20238735,-0.605411084,-0.388335759,-0.3,1.95,8.62,0,0,0,1743569210.8807216
890,2.20238735,-0.605411084,-0.388335759,-0.22,1.69,8.79,0,0,0,1743569210.8959084
891,1.175915584,-0.050178216,-0.26507188,-0.3,2.09,9.32,0,0,0,1743569210.9088113
892,1.214094661,-0.160352125,-0.257436065,-0.08,2.47,9.04,0,0,0,1743569210.9217088
893,1.07337749,-0.175623756,-0.184350402,-0.21,2.6,8.56,0,0,0,1743569210.9346056
894,1.007927643,-0.068722339,-0.160352125,-0.17,2.83,8.81,0,0,0,1743569210.9476864
895,1.069014167,-0.080721478,-0.151625479,-0.07,2.66,9.36,0,0,0,1743569210.9623623
896,1.677697743,-0.212712003,-0.241073603,-0.36,3,9.6,0,0,0,1743569210.9754453
897,1.888228085,-0.435241482,-0.010908308,-0.1,2.57,8.38,0,0,0,1743569210.9883428
898,1.966767901,-0.326158404,0.019634954,-0.48,2.9,8.31,0,0,0,1743569211.0041935
899,0.679587577,-0.040360739,0.054541539,-0.26,3.35,8.1,0,0,0,1743569211.017673
900,0.257436065,0.11126474,0.004363323,-0.23,3.55,8.57,0,0,0,1743569211.0305667
901,0.131990525,0.130899694,0.013089969,0.08,3.81,8.71,0,0,0,1743569211.0457287
902,0.262890219,0.078539816,-0.007635815,-0.39,3.2,9.29,0,0,0,1743569211.0586352
903,0.608683577,-0.090538955,-0.054541539,-0.32,3.67,9.15,0,0,0,1743569211.0715413
904,0.604320254,-0.198531202,-0.059995693,-0.1,3.51,8,0,0,0,1743569211.084759
905,0.772308194,0.032724923,-0.163624617,-0.29,3.75,8.54,0,0,0,1743569211.0976539
906,0.688314224,0.038179077,-0.115628063,-0.26,4.05,8.64,0,0,0,1743569211.112645
907,0.556323699,-0.006544985,-0.087266463,-0.31,4.02,8.36,0,0,0,1743569211.125773
908,-0.001090831,0.043633231,-0.039269908,-0.23,3.87,8.49,0,0,0,1743569211.1386697
909,-0.040360739,0.004363323,-0.045814893,-0.05,4.18,8.11,0,0,0,1743569211.1546774
910,-0.094902278,0.042542401,-0.06981317,-0.1,3.69,8.27,0,0,0,1743569211
911,0.147262156,0.044724062,-0.077448986,-0.26,3.71,8.57,0,0,0,1743569211.1806104
912,0.163624617,-0.013089969,-0.056723201,-0.37,3.49,8.25,0,0,0,1743569211.195589
913,-0.189804556,0.049087385,0.004363323,-0.28,3.62,8.27,0,0,0,1743569211.208481
914,-0.318522588,0.059995693,0.034906585,-0.14,3.92,8.27,0,0,0,1743569211.2213771
915,-0.570504499,0.101447263,0.090538955,-0.22,3.73,8.47,0,0,0,1743569211.2342644
916,-0.877027949,0.051269047,0.129808863,-0.11,3.9,8.14,0,0,0,1743569211.2473698
917,-1.419170848,0.101447263,0.171260433,0.26,3.62,7.13,0,0,0,1743569211.2620988
918,-1.817324084,0.359974158,0.143989663,-0.3,3.48,7.69,0,0,0,1743569211.2751698
919,-2.584178124,0.633772685,0.183259571,-0.22,2.8,8.29,0,0,0,1743569211.288063
920,-2.867794127,0.791943148,0.165806279,-0.51,2.94,8.39,0,0,0,1743569211.3036792
921,-3.905174201,0.938114473,0.328340066,-0.36,2.43,8.51,0,0,0,1743569211.3173566
922,-3.990259002,1.012290966,0.363246651,-0.73,1.39,9.61,0,0,0,1743569211.3302565
923,-3.720823799,0.905389549,0.393789912,-0.37,1.2,9.84,0,0,0,1743569211.3453636
924,-3.030327914,0.765763209,0.260708557,-0.63,0.52,10.26,0,0,0,1743569211
925,-2.681262063,0.550869545,0.188713725,-1.03,0.4,9.48,0,0,0,1743569211.3711576
926,-2.576542308,0.481056375,0.210530341,-0.81,0,9.27,0,0,0,1743569211.3843179
927,-2.261292212,0.54323373,0.224711141,-0.9,-0.11,9.62,0,0,0,1743569211.397329
928,-2.259110551,0.556323699,0.231256126,-0.98,-0.59,10.06,0,0,0,1743569211.412177
929,-1.948223778,0.519235452,0.173442094,-1.29,-0.91,10.27,0,0,0,1743569211.4252577
930,-1.315541924,0.242164434,-0.013089969,-1.47,-1.13,9.65,0,0,0,1743569211.4381533
931,-1.023199274,0.160352125,0.050178216,-1.72,-1.39,9.49,0,0,0,1743569211.4539847
932,-0.79412481,0.112355571,-0.001090831,-1.49,-1.16,8.94,0,0,0,1743569211.467351
933,-0.84975718,0.226892803,0.033815754,-1.63,-1.32,9.12,0,0,0,1743569211.4802423
934,-0.977384381,0.230165295,0.043633231,-1.36,-1.22,9.03,0,0,0,1743569211.495334
935,-1.035198413,0.406879882,0.066540678,-1.56,-1.45,9.91,0,0,0,1743569211.5082257
936,-0.994837674,0.301069296,0.064359016,-1.57,-1.42,9.82,0,0,0,1743569211.521119
937,-0.979566043,0.161442956,0.059995693,-1.37,-1.58,9.5,0,0,0,1743569211.534021
938,-0.944659458,0.094902278,0.077448986,-1.55,-1.38,8.15,0,0,0,1743569211.5471053
939,-1.133373183,0.297796804,0.184350402,-1.37,-1.68,8.67,0,0,0,1743569211.5617905
940,-1.036289243,0.433059821,0.202894526,-1.58,-1.85,9.16,0,0,0,1743569211.5748935
941,-0.880300441,0.385063266,0.122173048,-1.75,-2.26,10.12,0,0,0,1743569211.5879858
942,-0.903207888,0.184350402,0.075267324,-1.76,-2.63,9.68,0,0,0,1743569211.6038566
943,-0.827940564,0.172351264,-0.031634093,-1.85,-2.4,8.9,0,0,0,1743569211.617225
944,-0.907571211,0.249800249,0.022907446,-1.74,-2.36,9.1,0,0,0,1743569211.6301224
945,-0.977384381,0.291251819,0.089448124,-1.24,-1.68,9.32,0,0,0,1743569211.645247
946,-0.914116196,0.154897971,0.202894526,-1.38,-1.95,9.22,0,0,0,1743569211.6581435
947,-0.990474351,0.086175632,0.319613419,-1.64,-2.27,8.97,0,0,0,1743569211.671038
948,-1.067923336,0.063268185,0.317431758,-1.7,-2.66,8.66,0,0,0,1743569211.6842287
949,-1.000291828,0.266162711,0.141808002,-2.23,-3.37,8.91,0,0,0,1743569211.6971223
950,-1.118101552,0.266162711,0.075267324,-1.81,-2.99,8.73,0,0,0,1743569211.7120264
951,-1.243547092,0.355610835,0.103628924,-2.03,-3.73,9.1,0,0,0,1743569211.7250545
952,-0.923933673,0.229074464,-0.087266463,-1.79,-3.29,8.72,0,0,0,1743569211.7379615
953,-0.813759764,0.266162711,-0.177805418,-1.45,-3.08,8.59,0,0,0,1743569211.7539282
954,-1.042834228,0.361064989,-0.150534648,-2.11,-3.59,8.84,0,0,0,1743569211.7671375
955,-1.608975404,0.505054652,0.013089969,-2.23,-4.44,9.71,0,0,0,1743569211.7800362
956,-1.763873375,0.441786467,-0.023998277,-2.01,-3.91,9.13,0,0,0,1743569211.7950628
957,-1.093012444,-0.145080494,-0.22252948,-1.86,-3.26,8.11,0,0,0,1743569212
958,-0.967566904,-0.20943951,-0.094902278,-1.79,-2.99,7.35,0,0,0,1743569211.8208544
959,-0.990474351,0.022907446,0.037088247,-1.8,-3.8,7.65,0,0,0,1743569211.8337483
960,-0.945750288,0.443968128,0.131990525,-2.17,-5.05,8.82,0,0,0,1743569211.8468845
961,-0.733038286,0.371973297,-0.002181662,-2.37,-5.08,8.84,0,0,0,1743569211.8616989
962,-0.825758902,0.246527757,-0.124354709,-2.14,-4.79,7.94,0,0,0,1743569212
963,-0.775580686,0.427605667,-0.286888496,-2.52,-4.36,8.2,0,0,0,1743569211.8876657
964,-1.026471766,0.309795942,-0.100356432,-2.06,-4.2,8.04,0,0,0,1743569211.903323
965,-1.141008998,0.296705973,0.158170463,-2.7,-5.11,7.65,0,0,0,1743569211.916792
966,-1.028653428,0.255254403,0.271616865,-2.6,-5.5,7.48,0,0,0,1743569211.9296863
967,-0.893390411,0.309795942,0.281434342,-2.57,-5.54,8,0,0,0,1743569211.944833
968,-0.785398163,0.30652345,0.208348679,-2.24,-5.66,8.33,0,0,0,1743569211.9577274
969,-0.615228561,0.328340066,0.056723201,-2.28,-5.95,8.8,0,0,0,1743569211.9706209
970,-0.469057236,0.110173909,-0.101447263,-2.8,-5.27,8.03,0,0,0,1743569211.9838002
971,-0.683950901,-0.013089969,-0.016362462,-2.32,-5.21,7.76,0,0,0,1743569211.9966989
972,-0.617410223,-0.016362462,-0.030543262,-2.35,-4.82,7.14,0,0,0,1743569212.0114553
973,-0.645771823,0.046905724,0.123263878,-2.03,-4.31,7.33,0,0,0,1743569212.0245132
974,-0.520326283,0.046905724,0.310886773,-2.53,-5.63,7.79,0,0,0,1743569212.0374098
975,-0.503963822,-0.032724923,0.26507188,-2.83,-5.98,7.05,0,0,0,1743569212.0531814
976,-0.779944009,0.25089108,0.185441233,-3.11,-6.78,7.66,0,0,0,1743569212.0666587
977,-0.717766655,0.254163572,0.008726646,-2.49,-6.53,7.71,0,0,0,1743569212.0795507
978,-0.442877298,0.307614281,-0.218166156,-2.81,-5.3,7.64,0,0,0,1743569212.094669
979,-0.341430035,-0.052359878,-0.163624617,-2.94,-4.75,7.11,0,0,0,1743569212.107562
980,-0.640317669,-0.061086524,0.113446401,-2.16,-5.59,7.49,0,0,0,1743569212.1204536
981,-0.568322838,0.050178216,0.129808863,-2.43,-6,7.75,0,0,0,1743569212.133346
982,-1.228275461,0.068722339,0.298887634,-2.52,-5.69,7.94,0,0,0,1743569212.1464972
983,-1.414807525,0.102538094,0.285797665,-3.21,-8.11,7.42,0,0,0,1743569212.1613748
984,-0.988292689,0.004363323,-0.013089969,-3.23,-7.45,6.89,0,0,0,1743569212.1747046
985,-0.626136869,-0.029452431,-0.073085662,-2.7,-6.22,6.78,0,0,0,1743569212.1876059
986,-0.502872991,-0.091629786,-0.059995693,-2.63,-5.99,6.57,0,0,0,1743569212.2034776
987,-0.107992247,0.234528618,-0.205076187,-2.61,-7.04,7.52,0,0,0,1743569212.2166488
988,0.235619449,0.119991386,-0.41778819,-2.54,-7.29,7.55,0,0,0,1743569212.2295425
989,0.559596191,0.009817477,-0.632681854,-2.82,-5.92,6.65,0,0,0,1743569212.244582
990,0.397062405,-0.102538094,-0.483238037,-2.37,-6.05,6.36,0,0,0,1743569212.2574754
991,0.537779576,0.001090831,-0.433059821,-2.29,-6.01,6.51,0,0,0,1743569212.2703772
992,0.839939703,-0.011999139,-0.382881605,-2.51,-6.06,6.55,0,0,0,1743569212.2838535
993,0.721039147,-0.114537232,-0.087266463,-2.56,-5.66,7.23,0,0,0,1743569212.296748
994,0.507236314,-0.191986218,0.052359878,-2.53,-5.72,6.99,0,0,0,1743569212.3121111
995,0.44614979,-0.194167879,0.093811447,-2.32,-6.26,7.65,0,0,0,1743569212
996,0.890117919,-0.345793358,0.015271631,-2.17,-6.17,7.79,0,0,0,1743569212.3390243
997,1.244637923,-0.561777853,-0.0283616,-2.02,-6.01,7.68,0,0,0,1743569212.3543522
998,2.284199659,-0.735219947,-0.322885912,-1.54,-6.61,7.28,0,0,0,1743569212.3672845
999,3.198315854,-0.537779576,-0.569413668,-1.34,-7.06,7.72,0,0,0,1743569212.3801773
1000,4.497495316,-0.237801111,-0.985020197,-2.3,-7.13,8.95,0,0,0,1743569212.3948689
1001,6.902777192,-0.248709418,-2.344195352,-2.47,-4.85,9.27,0,0,0,1743569212.4079068
1002,7.522369076,-0.426514836,-2.643082986,-3.01,-2.62,8.81,0,0,0,1743569212.4207816
1003,6.874415591,-0.670860931,-2.398736891,-2.3,-1.23,8.78,0,0,0,1743569212.4338672
1004,5.575236129,-0.867210472,-1.42244334,-2.04,-1.73,9.17,0,0,0,1743569212.446746
1005,5.801038101,-1.194459707,-0.922842842,-1.71,-1.26,8.48,0,0,0,1743569212.4622695
1006,6.048656689,-1.292634477,-0.570504499,-0.74,1.5,7.54,0,0,0,1743569212.4753993
1007,5.546874529,-0.856302164,-0.22252948,-0.56,1.12,8.19,0,0,0,1743569212.4894123
1008,5.235987756,-0.519235452,-0.141808002,-1.01,0.97,10.11,0,0,0,1743569212.5044918
1009,5.686500869,-0.315250096,-0.398153236,-1.44,0.82,10.57,0,0,0,1743569212.5173662
1010,6.025749243,-0.397062405,-0.428696498,-1.79,1.99,10.05,0,0,0,1743569212.5302434
1011,5.719225793,-0.842121364,-0.355610835,-0.74,2.77,7.19,0,0,0,1743569212.544747
1012,4.030619741,-0.750491578,-0.13962634,-0.36,3.37,6.65,0,0,0,1743569212.5577717
1013,3.048872037,-0.398153236,-0.191986218,-0.22,3.95,6.4,0,0,0,1743569212.5706654
1014,2.279836335,0.117809725,-0.297796804,-0.57,4.84,8.67,0,0,0,1743569212.5840344
1015,2.535090739,0.429787328,-0.210530341,-0.63,5.07,8.59,0,0,0,1743569212.5969377
1016,2.571088154,0.211621172,-0.031634093,-0.61,4.75,8.55,0,0,0,1743569212.612797
1017,2.729258618,-0.031634093,0.081812309,-0.76,5.29,8.2,0,0,0,1743569212.6259036
1018,2.511092461,-0.008726646,-0.029452431,-0.73,5.62,8.63,0,0,0,1743569212.6405923
1019,2.868884958,0.02727077,-0.075267324,-0.75,5.91,6.94,0,0,0,1743569212.6548645
1020,3.149228469,-0.258526895,0.219256987,-0.89,5.54,6.44,0,0,0,1743569213
1021,2.499093323,-0.262890219,0.407970713,-0.57,5.92,5.76,0,0,0,1743569212.680666
1022,0.898844565,-0.261799388,0.368700804,-0.42,5.77,5.93,0,0,0,1743569212.6948903
1023,-0.421060682,0.343611696,-0.219256987,-0.36,6.83,6.69,0,0,0,1743569212.708463
1024,-0.553051207,0.499600498,-0.220347818,-0.35,7.33,7.35,0,0,0,1743569212.7213585
1025,-0.109083078,0.489783021,-0.068722339,-1.03,6.71,8.22,0,0,0,1743569212.734413
1026,1.593703773,-0.079630647,0.33488505,-0.96,6.48,7.11,0,0,0,1743569212.747321
1027,1.865320638,-0.351247512,0.341430035,-0.63,5.85,6.11,0,0,0,1743569212.763513
1028,1.68642439,0.002181662,-0.009817477,-0.46,5.85,5.67,0,0,0,1743569212.7764246
1029,1.372265124,0.256345234,-0.162533787,-0.54,6.19,6,0,0,0,1743569212.7919254
1030,0.896662903,0.328340066,-0.088357293,-0.59,7.12,6.38,0,0,0,1743569212.8054225
1031,0.570504499,0.155988802,0.067631509,-0.58,7.22,6.24,0,0,0,1743569212.8183227
1032,0.032724923,0.001090831,0.151625479,-0.51,6.98,6.35,0,0,0,1743569212.8314285
1033,-0.230165295,-0.053450708,0.137444679,-0.6,7.22,6.35,0,0,0,1743569212.845183
1034,0.106901417,-0.118900555,0.244346095,-0.58,7.04,6.12,0,0,0,1743569212.8591588
1035,0.182168741,-0.112355571,0.255254403,-0.63,6.66,6,0,0,0,1743569212.872054
1036,0.454876436,-0.06981317,0.185441233,-0.54,6.96,5.94,0,0,0,1743569212.8855407
1037,0.433059821,-0.05563237,0.149443817,-0.45,7.02,5.87,0,0,0,1743569212.8999784
1038,0.302160127,-0.034906585,0.112355571,-0.55,6.73,5.94,0,0,0,1743569212.9146388
1039,-0.201803695,-0.017453293,0.038179077,-0.56,6.62,6.06,0,0,0,1743569212.9275331
1040,-0.286888496,0.034906585,0.031634093,-0.75,6.87,6.07,0,0,0,1743569212.941383
1041,-0.163624617,-0.013089969,0.102538094,-0.73,7.42,6.13,0,0,0,1743569212.9550393
1042,0.303250958,-0.046905724,0.193077049,-0.49,7.26,6.11,0,0,0,1743569212.9679337
1043,0.491964683,-0.116718894,0.246527757,-0.4,6.46,5.56,0,0,0,1743569212.9808261
1044,0.235619449,-0.18107791,0.175623756,-0.32,6.14,5.22,0,0,0,1743569212.9948077
1045,-0.23671028,0.023998277,-0.160352125,-0.29,6.5,5.26,0,0,0,1743569213.0084383
1046,-0.37633662,0.196349541,-0.200712864,-0.51,6.92,6.12,0,0,0,1743569213.0213327
1047,-0.6130469,0.242164434,-0.155988802,-0.68,6.72,6.7,0,0,0,1743569213.0344176
1048,-1.083194967,0.061086524,-0.16689711,-0.38,7.3,6.27,0,0,0,1743569213.0476613
1049,-0.847575518,-0.018544123,-0.053450708,-0.36,6.92,6.16,0,0,0,1743569213.063458
1050,-0.517053791,0.02727077,0.147262156,-0.48,6.34,6.35,0,0,0,1743569213.0763562
1051,-0.457058098,-0.0283616,0.105810586,-0.41,6.45,5.87,0,0,0,1743569213.0922425
1052,-1.085376629,0.143989663,0.045814893,-0.45,6.03,6.14,0,0,0,1743569213.1054032
1053,-1.514073126,0.22362031,-0.026179939,-0.44,6.32,6.28,0,0,0,1743569213.1183105
1054,-1.803143283,0.251981911,-0.030543262,-0.34,6.59,6.45,0,0,0,1743569213.131206
1055,-2.590723108,0.304341788,0.058904862,-0.48,6.2,6.5,0,0,0,1743569213.1448305
1056,-3.280128163,0.294524311,0.135263017,-0.34,5.03,6.24,0,0,0,1743569213.1589916
1057,-3.608468228,0.346884189,0.008726646,-0.55,5.19,6.47,0,0,0,1743569213.1718779
1058,-3.809181092,0.786488994,-0.078539816,-0.88,4.89,7.57,0,0,0,1743569213.1851633
1059,-4.113522881,0.751582409,-0.077448986,-0.54,5.1,7.26,0,0,0,1743569213.1995802
1060,-4.648029964,0.654498469,-0.04145157,-0.89,3.86,8.23,0,0,0,1743569213.2142773
1061,-3.800454446,0.872664626,-0.074176493,-0.93,3.4,8.38,0,0,0,1743569213.227172
1062,-4.100432911,0.806123948,-0.031634093,-1.39,2.81,8.42,0,0,0,1743569213.2429776
1063,-4.896739383,0.783216502,-0.071994832,-1.01,2.69,7.91,0,0,0,1743569213.2558792
1064,-5.25562271,1.070104998,-0.086175632,-1.32,1.7,9.23,0,0,0,1743569213.2687755
1065,-4.87928609,1.264272877,-0.085084801,-1.99,1.09,9.93,0,0,0,1743569213.281673
1066,-3.8342702,0.952295273,0.391608251,-2.4,0.3,9.92,0,0,0,1743569213.295187
1067,-3.600832413,0.510508806,0.601047761,-1.74,0.23,9.62,0,0,0,1743569213.3099303
1068,-3.556108351,0.379609112,0.679587577,-1.58,0.18,9.73,0,0,0,1743569213.3230102
1069,-3.31830724,0.303250958,0.763581548,-1.47,-0.56,9.52,0,0,0,1743569213.3358734
1070,-2.982331359,0.368700804,0.6130469,-1.92,-0.41,9.16,0,0,0,1743569213.3512468
1071,-3.012874621,0.537779576,0.459239759,-1.75,-1.76,9.48,0,0,0,1743569213.364931
1072,-2.778346003,0.633772685,0.233437787,-2.47,-1.88,9.17,0,0,0,1743569213.377829
1073,-2.789254311,0.595593607,0.196349541,-2.88,-2.16,9.12,0,0,0,1743569213.3930821
1074,-3.076142807,0.54323373,0.470148067,-2.82,-3.29,9.17,0,0,0,1743569213.4059908
1075,-3.1786809,0.520326283,0.398153236,-2.55,-3.73,9.27,0,0,0,1743569213.418888
1076,-3.143774315,0.662134285,0.214893664,-2.37,-3.72,9.62,0,0,0,1743569213.4317868
1077,-2.231839781,0.591230284,-0.081812309,-2.51,-3.3,9.84,0,0,0,1743569213.4449663
1078,-1.8675023,0.281434342,-0.165806279,-2.42,-3.08,8.89,0,0,0,1743569213.4593625
1079,-1.832595715,0.214893664,-0.124354709,-2.33,-3.45,8.41,0,0,0,1743569213.4724748
1080,-1.800961622,0.549778714,-0.255254403,-3.03,-4.19,7.81,0,0,0,1743569213.4855647
1081,-2.228567289,0.807214779,-0.212712003,-2.41,-4.86,8.49,0,0,0,1743569213.5009513
1082,-1.893682238,1.079922475,-0.429787328,-3.16,-4.97,8.98,0,0,0,1743569213.514759
1083,-1.655881128,0.741764932,-0.323976742,-2.76,-4.62,8.95,0,0,0,1743569213.5276556
1084,-1.368992632,0.470148067,-0.230165295,-3.1,-4.73,8.72,0,0,0,1743569213.5429087
1085,-0.860665487,-0.031634093,-0.187622895,-2.59,-4.22,7.12,0,0,0,1743569213.5558033
1086,-0.879209611,0.044724062,-0.127627202,-2.85,-4.87,7.06,0,0,0,1743569213.5687099
1087,-0.997019335,0.213802833,-0.059995693,-3.55,-5.09,6.96,0,0,0,1743569213.581606
1088,-1.718058482,0.495237175,0.124354709,-2.77,-5.54,8.05,0,0,0,1743569213.5947871
1089,-1.395172571,0.643590162,-0.008726646,-3.12,-5.56,8.75,0,0,0,1743569213.609209
1090,-0.971930227,0.296705973,-0.106901417,-3.25,-5.37,8.5,0,0,0,1743569213.6223233
1091,-0.414515697,-0.15271631,-0.160352125,-2.8,-4.89,6.58,0,0,0,1743569213.6352246
1092,-0.30652345,-0.022907446,-0.102538094,-2.84,-4.96,6.69,0,0,0,1743569213.6504383
1093,-0.284706834,0.189804556,-0.035997416,-3.42,-5.8,7.84,0,0,0,1743569213.6643617
1094,-0.217075326,0.004363323,-0.105810586,-3.08,-5.77,7.41,0,0,0,1743569213.6772578
1095,-0.340339204,-0.016362462,-0.099265601,-2.93,-6.09,7.29,0,0,0,1743569213.6927128
1096,-0.066540678,-0.005454154,-0.213802833,-2.71,-4.55,6.71,0,0,0,1743569213.7056088
1097,-0.269435203,-0.003272492,-0.004363323,-2.34,-4.4,6.98,0,0,0,1743569213.7185068
1098,-0.448331452,0.093811447,0.277071019,-2.64,-4.93,7.51,0,0,0,1743569213.7314093
1099,-0.092720617,-0.031634093,0.299978465,-2.93,-5.93,7.49,0,0,0,1743569213.7446961
1100,0.057814031,-0.038179077,0.141808002,-2.8,-5.96,7.68,0,0,0,1743569213.7592852
1101,0.183259571,-0.038179077,0.002181662,-2.94,-6.2,8.02,0,0,0,1743569213.7724185
1102,0.841030533,-0.352338343,-0.239982772,-2.92,-5.47,7.12,0,0,0,1743569213.7853167
1103,0.953386104,-0.406879882,-0.227983634,-2.71,-5.34,6.74,0,0,0,1743569213.8007894
1104,1.109374906,-0.218166156,-0.175623756,-3.02,-4.64,6.84,0,0,0,1743569213.8144553
1105,0.762490717,-0.197440372,-0.011999139,-2.45,-5.04,7.05,0,0,0,1743569213.8273525
1106,0.566141176,-0.010908308,0.017453293,-2.83,-5.74,7.6,0,0,0,1743569213.8426828
1107,0.680678408,0.126536371,-0.126536371,-2.91,-5.45,8.24,0,0,0,1743569213.8555791
1108,0.771217363,0.046905724,-0.169078771,-2.93,-5.61,8.35,0,0,0,1743569213.8684833
1109,0.990474351,-0.067631509,-0.249800249,-2.96,-5.42,8.18,0,0,0,1743569214
1110,1.430079156,-0.215984495,-0.371973297,-2.64,-5.11,7.98,0,0,0,1743569213.8945618
1111,1.749692575,-0.148352986,-0.414515697,-2.73,-4.98,8.32,0,0,0,1743569213.9092867
1112,2.204569011,-0.200712864,-0.499600498,-2.76,-4.7,8.25,0,0,0,1743569213.9223619
1113,2.713986987,-0.23671028,-0.6272277,-2.89,-4.66,8.59,0,0,0,1743569214
1114,2.741257756,-0.424333174,-0.582503638,-3.01,-2.95,6.82,0,0,0,1743569213.9509058
1115,1.144281491,-0.158170463,-0.15380714,-2.37,-3.67,7.53,0,0,0,1743569213.9645875
1116,1.148644814,0.221438649,-0.150534648,-2.51,-3.9,8.27,0,0,0,1743569213.977485
1117,1.332995216,0.303250958,-0.206167018,-2.82,-3.86,10.27,0,0,0,1743569213.9926422
1118,1.893682238,-0.191986218,-0.273798526,-2.72,-3.92,9.67,0,0,0,1743569214.0055387
1119,2.360557813,-0.509417975,-0.375245789,-2.15,-3.54,9.1,0,0,0,1743569214.0184371
1120,3.042327052,-0.507236314,-0.493055514,-2.18,-3.06,9.03,0,0,0,1743569214.0313315
1121,4.662210764,-0.412334036,-0.815941425,-2.07,-2.05,9.37,0,0,0,1743569214.044402
1122,5.223988617,-0.421060682,-0.75267324,-2.8,-0.91,9.05,0,0,0,1743569214.0590777
1123,5.054909846,-0.714494163,-0.513781299,-2.31,-0.44,8.54,0,0,0,1743569214.0721872
1124,3.658646444,-0.704676685,-0.018544123,-2.12,-0.93,8.58,0,0,0,1743569214.0850894
1125,3.565925828,-0.614137731,0.079630647,-1.65,-0.02,8.43,0,0,0,1743569214.1007168
1126,3.876812601,-0.475602221,0.19525871,-1.52,1.05,8.63,0,0,0,1743569214.1143954
1127,4.049163865,-0.415606528,0.143989663,-1.27,1.48,9.18,0,0,0,1743569214.127292
1128,4.355687315,-0.271616865,0.004363323,-1.53,1.94,9.5,0,0,0,1743569214.1424599
1129,5.593780253,-0.318522588,-0.106901417,-1.85,2.57,9.32,0,0,0,1743569214.1555674
1130,6.072654966,-0.558505361,0.003272492,-1.75,3.13,8.42,0,0,0,1743569214.168474
1131,6.387905062,-0.73849244,0.114537232,-1.11,3.92,7.58,0,0,0,1743569214.1818526
1132,4.379685592,-0.521417114,0.422151513,-1.4,3.68,8.06,0,0,0,1743569214.1947484
1133,2.405281875,-0.256345234,0.350156681,-1.67,3.45,8.65,0,0,0,1743569214.2099907
1134,1.03192592,0.035997416,0.059995693,-1.78,4.66,9.24,0,0,0,1743569214
1135,1.183551399,-0.103628924,0.017453293,-0.83,6.62,7.91,0,0,0,1743569214.236706
1136,1.755146729,-0.187622895,0.091629786,-0.9,6.51,8.07,0,0,0,1743569214.2521288
1137,3.620467367,-0.173442094,0.410152374,-1.59,5.36,7.75,0,0,0,1743569214.265024
1138,4.063344665,-0.339248373,0.484328867,-1.67,5.19,7.56,0,0,0,1743569214.2779222
1139,4.325144053,-0.326158404,0.567232007,-0.88,5.97,6.56,0,0,0,1743569214.2927122
1140,2.873248281,-0.258526895,0.518144622,-1.29,5.71,6.37,0,0,0,1743569214.3056116
1141,2.168571596,-0.128718032,0.498509668,-1.04,5.56,6.27,0,0,0,1743569214.3185093
1142,1.246819584,-0.142898833,0.397062405,-1.13,5.37,5.97,0,0,0,1743569214.3316526
1143,0.671951762,0.047996554,0.119991386,-0.81,6.84,5.94,0,0,0,1743569214.344549
1144,0.625046038,0.100356432,0.127627202,-0.74,7.18,5.93,0,0,0,1743569214.3598518
1145,0.723220809,0.044724062,0.155988802,-0.58,7.5,5.89,0,0,0,1743569214.372995
1146,0.991565181,-0.031634093,0.294524311,-0.58,7.92,6.52,0,0,0,1743569214.3864148
1147,1.256637061,0.050178216,0.353429174,-1.3,8.07,7.21,0,0,0,1743569214.4019413
1148,2.444551784,-0.163624617,1.00356432,-1.15,6.58,6.03,0,0,0,1743569214.4148383
1149,2.18820655,-0.340339204,1.028653428,-0.76,6.26,5.43,0,0,0,1743569214.4277408
1150,1.385355094,-0.401425728,0.865028811,-0.3,6.58,4.45,0,0,0,1743569214.4425035
1151,0.003272492,-0.174532925,0.123263878,-0.09,7.29,4.41,0,0,0,1743569214.4554088
1152,-0.149443817,0.051269047,-0.051269047,0,7.72,4.62,0,0,0,1743569214.4683056
1153,-0.357792497,0.171260433,-0.175623756,-0.2,8.06,5.24,0,0,0,1743569214.4816668
1154,0.727584132,0.129808863,0.137444679,-0.71,7.88,5.76,0,0,0,1743569214.4945633
1155,0.986111027,-0.137444679,0.361064989,-0.5,7.46,5.14,0,0,0,1743569214.5099795
1156,0.755945732,-0.351247512,0.368700804,-0.19,6.58,4.2,0,0,0,1743569214.523131
1157,0.107992247,-0.117809725,-0.008726646,-0.25,6.74,4.52,0,0,0,1743569214.5370035
1158,-0.356701666,0.059995693,-0.249800249,-0.56,7.75,5.49,0,0,0,1743569214.5520842
1159,-0.510508806,0.231256126,-0.237801111,-0.61,7.83,5.66,0,0,0,1743569214.5649848
1160,-0.541052068,0.128718032,-0.145080494,-0.68,7.74,5.7,0,0,0,1743569214.5778816
1161,-0.580321976,-0.018544123,-0.043633231,-0.38,6.9,4.91,0,0,0,1743569214.592532
1162,-1.019926782,-0.090538955,-0.088357293,-0.53,6.83,5.08,0,0,0,1743569214.6054301
1163,-1.050470044,0.102538094,-0.173442094,-0.46,7.05,5.27,0,0,0,1743569214.6183288
1164,-1.235911277,0.255254403,-0.218166156,-0.54,7.29,5.84,0,0,0,1743569214.6314688
1165,-2.042035225,0.172351264,-0.229074464,-0.66,7.18,5.65,0,0,0,1743569214.6443648
1166,-2.599449755,0.155988802,-0.138535509,-0.4,6.51,5.41,0,0,0,1743569214.659771
1167,-3.488476842,0.215984495,-0.15380714,-0.63,6.67,5.86,0,0,0,1743569214.6728973
1168,-3.395756226,0.547597053,-0.088357293,-0.27,6.96,6.25,0,0,0,1743569214.6865473
1169,-3.651010629,0.656680131,0.066540678,-1.06,6.11,7.45,0,0,0,1743569214.7018383
1170,-3.942262448,0.584685299,0.356701666,-0.92,5.13,7.58,0,0,0,1743569215
1171,-4.429863808,0.548687884,0.32070425,-1.2,4.66,7.97,0,0,0,1743569214.7276363
1172,-4.285874144,0.666497608,0.453785606,-1.31,4.09,8.78,0,0,0,1743569214.742279
1173,-3.501566812,0.472329729,0.747219086,-1.5,3.73,8.82,0,0,0,1743569214.7551765
1174,-3.271401517,0.462512252,0.800669794,-1.52,3.41,8.62,0,0,0,1743569214.7680697
1175,-3.440480288,0.422151513,0.831213056,-1,2.68,7.41,0,0,0,1743569214.7814035
1176,-4.627304179,1.135554845,1.007927643,-1.49,2.88,8.54,0,0,0,1743569214.7943003
1177,-4.294600791,1.484620695,0.78103484,-1,3.15,9.93,0,0,0,1743569214.809996
1178,-3.94444411,1.523890603,0.674133424,-2.26,1.57,9.85,0,0,0,1743569214.8231537
1179,-2.908154866,0.940296135,0.798488133,-2.35,0.96,8.7,0,0,0,1743569214.8372734
1180,-3.181953393,0.767944871,0.761399886,-1.92,0.35,8.74,0,0,0,1743569214.8520715
1181,-1.999492824,1.233729615,0.301069296,-1.39,0.95,10.22,0,0,0,1743569214.8649662
1182,-1.392990909,1.391900078,0.186532064,-2.09,1.71,11.5,0,0,0,1743569214.8778634
1183,-0.782125671,0.97520272,0.208348679,-1.78,0.67,9.7,0,0,0,1743569214.8923311
1184,-0.89229958,-0.021816616,0.442877298,-1.66,0.5,9.09,0,0,0,1743569214.9055068
1185,-0.611956069,-0.128718032,0.398153236,-1.3,0.85,7.93,0,0,0,1743569214.9184084
1186,-0.774489856,0.013089969,0.40360739,-1.56,0.17,8.38,0,0,0,1743569214.9314668
1187,-0.605411084,0.593411946,0.405789051,-1.81,0.27,9.5,0,0,0,1743569214.944361
1188,-0.343611696,0.559596191,0.221438649,-1.84,0.67,10,0,0,0,1743569214.9600813
1189,-0.246527757,0.388335759,0.118900555,-1.79,0.41,10.08,0,0,0,1743569214.9731581
1190,0.522507945,-0.284706834,-0.009817477,-2.15,0.13,7.97,0,0,0,1743569214.9874885
1191,0.304341788,-0.531234591,0.053450708,-2.06,-0.37,8.15,0,0,0,1743569215.0021083
1192,-0.020725785,0.200712864,-0.103628924,-2.2,0.02,8.8,0,0,0,1743569215.0150037
1193,-0.257436065,0.453785606,-0.147262156,-1.89,0.56,10.86,0,0,0,1743569215.0278745
1194,-0.256345234,0.469057236,-0.089448124,-2.32,0.21,10.14,0,0,0,1743569215
1195,0.322885912,-0.389426589,0.002181662,-1.79,0.65,8.77,0,0,0,1743569215.0554063
1196,0.582503638,-0.500691329,-0.0283616,-1.87,0.66,8.29,0,0,0,1743569215.068301
1197,0.535597914,-0.451603944,-0.019634954,-1.77,0.45,8.5,0,0,0,1743569215.081569
1198,0.352338343,0.176714587,-0.13962634,-2.06,0.57,9.57,0,0,0,1743569215.094478
1199,0.507236314,0.305432619,-0.232346957,-2.26,0.69,9.78,0,0,0,1743569215.110453
1200,0.558505361,0.175623756,-0.296705973,-2.8,0.45,9.79,0,0,0,1743569215.1233647
1201,0.586866961,0.110173909,-0.230165295,-3.1,0.19,9.07,0,0,0,1743569215.1382146
1202,0.16689711,0.021816616,-0.141808002,-2.67,0.4,9.16,0,0,0,1743569215.152356
1203,-0.075267324,0.395971574,-0.188713725,-2.71,0.41,8.56,0,0,0,1743569215.165256
1204,-0.141808002,0.426514836,-0.233437787,-1.88,1.21,8.11,0,0,0,1743569215.178157
1205,0.058904862,0.580321976,-0.226892803,-2.74,0.59,9.01,0,0,0,1743569215.1922843
1206,0.29234265,0.815941425,-0.248709418,-2.28,0.73,8.46,0,0,0,1743569215.2058284
1207,0.117809725,0.927206165,-0.254163572,-2.49,0.55,8.53,0,0,0,1743569215.2187278
1208,0.221438649,1.18464223,-0.321795081,-2.94,1.35,10.33,0,0,0,1743569215.2318254
1209,0.500691329,1.632973681,-0.46033059,-3.65,0.68,10.59,0,0,0,1743569215.2447217
1210,0.118900555,1.568614665,-0.406879882,-3.99,0.01,10.6,0,0,0,1743569215.2609482
1211,-0.315250096,1.418080017,-0.537779576,-3.57,0.41,9.28,0,0,0,1743569215.2738469
1212,-0.496328006,1.461713249,-0.574867822,-4.09,0.04,9.26,0,0,0,1743569215.289391
1213,-0.27816185,1.544616388,-0.784307333,-3.98,-0.14,8.34,0,0,0,1743569215.3028572
1214,-0.262890219,1.724603467,-0.772308194,-4.08,0.27,8.48,0,0,0,1743569215.3157542
1215,-0.150534648,1.832595715,-0.591230284,-3.76,0.63,8.68,0,0,0,1743569215.3286493
1216,-0.062177355,1.803143283,-0.493055514,-4.36,0.19,8.56,0,0,0,1743569215.342599
1217,0.113446401,1.650426974,-0.344702527,-4.42,0.15,8.4,0,0,0,1743569215.3565526
1218,0.017453293,1.588249619,-0.258526895,-4.28,0.59,7.91,0,0,0,1743569215.3694508
1219,-0.416697359,1.623156204,-0.102538094,-4.82,-0.04,7.05,0,0,0,1743569215.3829694
1220,-0.596684438,1.818414914,0.006544985,-4.96,-0.01,7.19,0,0,0,1743569215.3973863
1221,-0.511599637,1.920953008,-0.030543262,-5.88,-0.28,7.9,0,0,0,1743569215.412037
1222,-0.427605667,2.18929738,-0.143989663,-5.76,0.07,8.05,0,0,0,1743569215.4249341
1223,-0.340339204,2.163117442,-0.205076187,-5.86,0.3,8.24,0,0,0,1743569215.4406543
1224,-0.200712864,2.000583655,-0.095993109,-5.94,0.72,8.47,0,0,0,1743569215.4535544
1225,-0.057814031,1.812960761,-0.038179077,-5.9,0.9,8.5,0,0,0,1743569215.4664521
1226,0.093811447,1.699514359,-0.005454154,-6.34,0.81,9.13,0,0,0,1743569215.4795544
1227,0.165806279,1.274090354,0.071994832,-7.06,0.3,9.15,0,0,0,1743569215.4928463
1228,0.073085662,0.982838535,0.095993109,-6.85,0.25,8.54,0,0,0,1743569215.507317
1229,-0.04145157,0.748309917,0.09708394,-6.52,0.48,7.87,0,0,0,1743569216
1230,0.079630647,0.531234591,0.130899694,-6.21,0.27,5.77,0,0,0,1743569215.533303
1231,0.081812309,0.608683577,0.13962634,-6.59,-0.16,5.72,0,0,0,1743569215.5484736
1232,0.090538955,0.788670656,0.134172186,-6.59,0.18,6.17,0,0,0,1743569215.5624287
1233,0.04145157,0.874846288,0.064359016,-6.56,0.35,6.21,0,0,0,1743569215.5753236
1234,0.054541539,0.814850595,0.09708394,-6.51,0.23,6.15,0,0,0,1743569215.5908198
1235,-0.0283616,0.693768378,0.099265601,-6.71,0.02,5.99,0,0,0,1743569215.6037145
1236,-0.099265601,0.680678408,0.071994832,-6.9,0.06,6.69,0,0,0,1743569215.6166108
1237,-0.0141808,0.693768378,0.066540678,-7.15,0.14,7.07,0,0,0,1743569215.6295068
1238,-0.309795942,0.375245789,0.095993109,-6.91,0.09,6.51,0,0,0,1743569215.6426866
1239,-0.269435203,0.368700804,0.117809725,-6.98,0.01,6.56,0,0,0,1743569215.6571069
1240,-0.193077049,0.267253542,0.107992247,-7.01,0.09,6.97,0,0,0,1743569215.6702402
1241,0.030543262,0.170169602,0.003272492,-7.33,0.09,7.77,0,0,0,1743569215.683138
1242,0.086175632,-0.099265601,0.029452431,-7.36,0.04,7.46,0,0,0,1743569215.6983228
1243,0.15380714,-0.314159265,0.092720617,-6.9,0.27,6.74,0,0,0,1743569215.712279
1244,0.305432619,-0.539961237,0.087266463,-6.79,0.27,6.35,0,0,0,1743569215.7251778
1245,0.294524311,-0.595593607,0.0283616,-6.68,0.35,6.28,0,0,0,1743569215.7406363
1246,0.092720617,-0.532325422,-0.074176493,-7.18,0.31,7.92,0,0,0,1743569215.7535381
1247,0.091629786,-0.646862654,-0.044724062,-6.93,0.67,8.69,0,0,0,1743569215.766449
1248,0.189804556,-0.89229958,0.017453293,-7.46,1.37,10.97,0,0,0,1743569215.7793477
1249,0.445058959,-2.235112273,0.428696498,-7.35,0.37,7.92,0,0,0,1743569215.7925258
1250,0.491964683,-2.668172094,0.471238898,-7.19,-0.14,6.29,0,0,0,1743569215.8069186
1251,0.388335759,-2.576542308,0.355610835,-6.25,-0.08,4.91,0,0,0,1743569215.8200684
1252,0.400334897,-1.914408023,-0.011999139,-5.56,1.37,7.32,0,0,0,1743569215.8329625
1253,0.496328006,-1.943860454,0.133081355,-5.07,1.38,7.17,0,0,0,1743569215.8481686
1254,0.437423144,-2.297289628,0.332703389,-5.06,0.54,6.59,0,0,0,1743569215.8620992
1255,0.165806279,-2.519819108,0.534507083,-4.63,0.6,6.58,0,0,0,1743569215.8749971
1256,0.076358155,-2.486003353,0.457058098,-5.36,-0.94,7.01,0,0,0,1743569215.8904738
1257,0.251981911,-2.571088154,0.171260433,-4.67,-0.24,5.98,0,0,0,1743569215.9033856
1258,0.171260433,-2.60708557,0.064359016,-4.52,-0.57,4.86,0,0,0,1743569215.9162805
1259,0.177805418,-2.479458369,-0.056723201,-3.22,-0.01,3.03,0,0,0,1743569215.9291818
1260,0.6272277,-1.147553983,-0.845393856,-3.19,1.84,7.09,0,0,0,1743569215.9423647
1261,0.706858347,-0.713403332,-0.893390411,-3.57,2.93,12.43,0,0,0,1743569215.9569154
1262,0.819213918,-0.90648038,-0.718857486,-4.52,2.56,15.11,0,0,0,1743569215.9699886
1263,1.987493686,-2.480549199,0.056723201,-5.94,0.91,13.61,0,0,0,1743569215.982887
1264,1.916589685,-3.744822076,0.402516559,-4.61,-1.17,6.37,0,0,0,1743569215.9981325
1265,1.576250481,-4.075343803,0.394880743,-2.64,0.15,4.98,0,0,0,1743569216.0120673
1266,0.410152374,-2.194751534,-0.307614281,-2.47,2.69,11.59,0,0,0,1743569216.0249634
1267,0.178896248,-1.51952728,-0.30652345,-2.93,2.55,12.23,0,0,0,1743569216.040481
1268,0.397062405,-2.794708465,0.394880743,-1.33,2.4,9.13,0,0,0,1743569216.0533817
1269,0.894481242,-2.651809632,0.251981911,-2.11,1.25,9.84,0,0,0,1743569216.0662804
1270,1.323177739,-2.635447171,0.093811447,-1.4,1.81,8.8,0,0,0,1743569216.0793076
1271,0.809396441,-2.735803603,-0.162533787,0.27,2.45,6.58,0,0,0,1743569216.092368
1272,0.495237175,-2.255838058,-0.281434342,0.61,3.74,9.14,0,0,0,1743569216.1072116
1273,0.398153236,-1.522799772,-0.385063266,-0.35,3.11,11.36,0,0,0,1743569216.120287
1274,0.98938352,-2.109666733,0.162533787,0.53,2.41,6.64,0,0,0,1743569216.1333785
1275,0.911934534,-2.201296519,0.290160988,0.54,2.09,5.83,0,0,0,1743569216.1493065
1276,0.150534648,-0.679587577,-0.035997416,0.98,3.88,10.47,0,0,0,1743569216.162488
1277,0.040360739,-0.297796804,-0.057814031,-0.51,2.31,12.55,0,0,0,1743569216.1753936
1278,0.268344372,-0.951204442,0.119991386,0.41,2.45,8.94,0,0,0,1743569216.1903915
1279,0.44614979,-1.64497282,0.30652345,1.07,2.6,7.4,0,0,0,1743569216.2032902
1280,0.341430035,-1.419170848,0.259617726,1.29,2.81,7.4,0,0,0,1743569216.2161825
1281,0.25089108,-1.082104136,0.188713725,1.64,3.65,8.21,0,0,0,1743569216.2290726
1282,0.358883327,-0.54323373,0.23671028,0.68,2.84,10.69,0,0,0,1743569216.2421951
1283,0.596684438,-0.970839396,0.382881605,0.77,2.61,9.83,0,0,0,1743569216.2570014
1284,0.787579825,-1.202095522,0.400334897,0.63,2.2,9.03,0,0,0,1743569216.2701046
1285,0.386154097,-0.974111889,0.18107791,1.03,2.47,7.91,0,0,0,1743569216
1286,0.115628063,-0.705767516,0.061086524,1.38,2.77,7.7,0,0,0,1743569216.298863
1287,-0.269435203,-0.154897971,-0.134172186,1.57,3.6,9.06,0,0,0,1743569216.3122137
1288,-0.257436065,0.002181662,-0.148352986,1.21,3.3,9.94,0,0,0,1743569216.325113
1289,-0.054541539,-0.095993109,0,1.39,3.13,8.47,0,0,0,1743569216.3402054
1290,0.203985356,-0.592321115,0.176714587,1.49,2.69,7.22,0,0,0,1743569216.3531117
1291,0.18107791,-0.433059821,0.146171325,1.52,2.54,6.92,0,0,0,1743569216.3660166
1292,0.147262156,-0.215984495,0.107992247,1.66,2.65,6.89,0,0,0,1743569216
1293,-0.157079633,0.343611696,-0.06981317,1.79,2.98,7.21,0,0,0,1743569216.3922184
1294,-0.386154097,0.550869545,-0.158170463,1.82,3.61,8.22,0,0,0,1743569216.4072568
1295,-0.430878159,0.759218225,-0.175623756,1.84,3.41,8.25,0,0,0,1743569216.4203863
1296,-0.22362031,0.373064128,0.08399397,1.69,2.99,7.84,0,0,0,1743569216.4332826
1297,-0.189804556,0.422151513,0.145080494,1.59,2.94,7.54,0,0,0,1743569216.4492738
1298,-0.581412807,0.897753734,0.123263878,1.35,2.4,7.11,0,0,0,1743569216.462176
1299,-0.80830561,1.144281491,0.089448124,1.36,2.3,6.64,0,0,0,1743569216.4750712
1300,-0.998110166,1.451895772,0.0283616,0.95,2.16,7.07,0,0,0,1743569216.4900434
1301,-1.242456261,2.147845811,-0.057814031,0.88,2.55,7.83,0,0,0,1743569216.5029428
1302,-1.261000385,2.519819108,-0.129808863,0.35,2.4,9.22,0,0,0,1743569216.5158489
1303,-1.256637061,2.74671191,-0.141808002,-0.27,1.97,10.18,0,0,0,1743569216.5287445
1304,-1.166098106,2.324560397,-0.062177355,-0.52,1.76,9.52,0,0,0,1743569216.5418696
1305,-0.986111027,2.34201369,-0.09708394,-1.01,1.69,10.48,0,0,0,1743569216.5566628
1306,-0.819213918,2.279836335,-0.06981317,-1.35,1.53,11.01,0,0,0,1743569216.569794
1307,-0.519235452,1.901318054,-0.018544123,-1.47,1.87,10.89,0,0,0,1743569216.5826905
1308,-0.542142899,1.648245312,0.034906585,-1.11,2.39,10.42,0,0,0,1743569216.5986001
1309,-0.574867822,1.569705496,0.134172186,-1.74,1.22,8.66,0,0,0,1743569216.611902
1310,-0.671951762,1.488984018,0.190895387,-1.82,0.68,7.26,0,0,0,1743569216.624797
1311,-0.693768378,1.735511775,0.067631509,-2.82,-0.3,6.23,0,0,0,1743569216.639846
1312,-1.330813555,3.043417883,-0.429787328,-3.11,0.19,7.57,0,0,0,1743569216.6527417
1313,-1.468258233,3.584469951,-0.565050345,-3.12,1.32,10,0,0,0,1743569216.665639
1314,-1.466076572,3.787364477,-0.590139453,-4.42,1.45,13.92,0,0,0,1743569216.678534
1315,-0.745037424,2.288562982,-0.068722339,-4.07,1.29,11.12,0,0,0,1743569216.6916327
1316,-0.231256126,1.828232391,0.059995693,-4.41,0.97,9.9,0,0,0,1743569216.7063384
1317,-0.08399397,1.698423528,0.117809725,-4.57,0.15,7.98,0,0,0,1743569216.7194233
1318,-0.29234265,2.142391657,-0.148352986,-5.3,-0.53,7.41,0,0,0,1743569216.7323196
1319,-0.410152374,2.361648644,-0.268344372,-5.42,-0.78,7.04,0,0,0,1743569216.7478297
1320,-0.842121364,2.854704158,-0.47451139,-5.49,0.14,9.5,0,0,0,1743569216.7615075
1321,-1.013381797,2.832887542,-0.507236314,-5.53,1.05,11.82,0,0,0,1743569216.7744057
1322,-0.990474351,2.387828583,-0.354520004,-5.91,1.58,14.38,0,0,0,1743569216.7896602
1323,-0.383972435,0.226892803,0.311977604,-5.38,0.77,10.42,0,0,0,1743569216.8027387
1324,-0.105810586,-0.462512252,0.491964683,-5.03,-0.44,6.2,0,0,0,1743569216.8156395
1325,-0.079630647,-0.628318531,0.496328006,-4.75,-0.67,5.04,0,0,0,1743569216.8285344
1326,-0.357792497,0.086175632,0.212712003,-4.5,-0.42,5.59,0,0,0,1743569216.8415446
1327,-0.490873852,0.485419698,0.064359016,-4.45,-0.08,6.8,0,0,0,1743569216.8563738
1328,-0.51596296,0.608683577,-0.0141808,-4.42,0.22,7.67,0,0,0,1743569216.869462
1329,-0.29343348,0.582503638,-0.178896248,-4.58,0.25,8.13,0,0,0,1743569216.8823614
1330,-0.094902278,0.388335759,-0.165806279,-4.96,-0.01,7.94,0,0,0,1743569216.8980882
1331,-0.002181662,-0.063268185,-0.063268185,-4.59,0.24,6.88,0,0,0,1743569216.9114556
1332,-0.143989663,-0.051269047,-0.007635815,-4.52,0.23,6.83,0,0,0,1743569217
1333,-0.22252948,-0.030543262,0.066540678,-4.62,-0.24,6.71,0,0,0,1743569216.939503
1334,-0.200712864,0.130899694,0.174532925,-4.59,-0.03,7,0,0,0,1743569216.9523976
1335,-0.081812309,0.259617726,0.09708394,-4.99,0.17,8.37,0,0,0,1743569216.9652936
1336,0.009817477,0.295615142,0.080721478,-5.25,0.35,9.27,0,0,0,1743569216.9786718
1337,0.074176493,-0.047996554,0.147262156,-5.37,0.34,8.56,0,0,0,1743569217
1338,-0.011999139,-0.32070425,0.203985356,-5.09,0.58,7.86,0,0,0,1743569217.0065045
1339,0.002181662,-0.382881605,0.217075326,-5.02,0.11,6.64,0,0,0,1743569217.019649
1340,-0.054541539,-0.174532925,0.273798526,-5.81,-1.31,7.58,0,0,0,1743569217.032548
1341,-0.133081355,0.059995693,0.169078771,-5.86,-1.14,8.22,0,0,0,1743569217.0485923
1342,-0.100356432,0.074176493,-0.123263878,-6.07,-0.53,10.18,0,0,0,1743569217.0614994
1343,0.007635815,-0.322885912,-0.101447263,-5.39,-0.26,8.48,0,0,0,1743569217.0744057
1344,0.163624617,-0.713403332,-0.076358155,-5.31,-0.27,7.44,0,0,0,1743569217
1345,0.354520004,-0.73849244,-0.106901417,-5.28,-0.31,7.48,0,0,0,1743569217.1022902
1346,0.290160988,-0.618501054,-0.150534648,-5.33,-0.51,7.71,0,0,0,1743569217.1151848
1347,0.270526034,-0.565050345,-0.182168741,-5.15,-0.41,7.79,0,0,0,1743569217.1280782
1348,0.426514836,-0.582503638,-0.326158404,-4.98,0.33,8.95,0,0,0,1743569217
1349,0.499600498,-0.778853179,-0.345793358,-4.61,0.75,9.01,0,0,0,1743569217.1559792
1350,0.527962099,-0.969748566,-0.350156681,-4.66,0.56,9.04,0,0,0,1743569217.1691148
1351,0.644680992,-1.456259095,-0.257436065,-4.35,0.42,7.97,0,0,0,1743569217.1820219
1352,0.566141176,-1.713695159,-0.246527757,-4.13,0.39,7.53,0,0,0,1743569217.1978486
1353,0.54432456,-1.558797188,-0.394880743,-3.39,1.51,8.42,0,0,0,1743569217.2112098
1354,0.428696498,-1.412625863,-0.455967267,-3.98,1.52,10.92,0,0,0,1743569217.224106
1355,0.645771823,-1.314451093,-0.462512252,-4.07,1.16,10.22,0,0,0,1743569217.2392087
1356,1.127919029,-2.640901324,-0.081812309,-3.01,0.34,6.69,0,0,0,1743569217.2521048
1357,0.909752873,-2.612539724,-0.122173048,-2.83,0.19,6.72,0,0,0,1743569217.265002
1358,0.6272277,-2.24492975,-0.261799388,-2.65,0.39,6.89,0,0,0,1743569217.2778974
1359,0.34906585,-1.763873375,-0.364337481,-3.15,0.4,9.45,0,0,0,1743569217.2910016
1360,0.511599637,-1.730057621,-0.212712003,-3.05,0.32,8.78,0,0,0,1743569217.305814
1361,0.537779576,-1.902408885,-0.033815754,-2.13,0.95,8.09,0,0,0,1743569217.318915
1362,0.519235452,-1.403899217,-0.089448124,-2.11,1.29,9.25,0,0,0,1743569217.331812
1363,0.646862654,-1.175915584,-0.102538094,-2.41,1.44,11.24,0,0,0,1743569217.347853
1364,0.78103484,-1.667880266,0.196349541,-2.38,0.91,10.39,0,0,0,1743569217.3611093
1365,0.664315947,-2.155481626,0.353429174,-2.44,0.16,9.31,0,0,0,1743569217.3740144
1366,0.566141176,-2.122756703,0.234528618,-1.95,1.19,10.55,0,0,0,1743569217.3890173
1367,0.520326283,-1.332995216,-0.341430035,-1.84,1.84,11.4,0,0,0,1743569217.4019191
1368,0.597775269,-1.332995216,-0.330521727,-1.26,2.21,11.09,0,0,0,1743569217.4148154
1369,0.589048623,-1.65915362,-0.22252948,-1.38,0.99,9.91,0,0,0,1743569217.4277117
1370,0.678496747,-2.043126056,0.029452431,-0.28,0.88,7,0,0,0,1743569217.440814
1371,0.646862654,-1.956950424,-0.075267324,-0.11,1.15,7.3,0,0,0,1743569217.4557943
1372,0.737401609,-1.496619834,-0.289070157,0.33,2.07,7.6,0,0,0,1743569217.4688308
1373,0.505054652,-1.023199274,-0.338157543,0.03,1.95,8.46,0,0,0,1743569217.4817302
1374,0.354520004,-0.673042593,-0.26507188,0.27,2.07,9.06,0,0,0,1743569217.4977024
1375,0.646862654,-0.491964683,-0.147262156,-1.1,2.23,13.62,0,0,0,1743569217.5109224
1376,0.990474351,-1.139918168,0.18107791,-0.54,1.92,11.15,0,0,0,1743569217.5238254
1377,1.038470905,-1.99403867,0.397062405,1.07,2.03,5.98,0,0,0,1743569217.5388503
1378,0.885754595,-1.447532448,0.117809725,1.59,2.61,5.89,0,0,0,1743569217.5517473
1379,0.493055514,-0.782125671,-0.038179077,1.53,2.86,6.72,0,0,0,1743569217.5646462
1380,0.138535509,-0.16689711,-0.090538955,1.28,2.9,8.22,0,0,0,1743569217.577543
1381,-0.224711141,0.398153236,-0.08399397,0.56,3.33,12.03,0,0,0,1743569217.5906367
1382,-0.142898833,0.073085662,0.110173909,0.59,2.48,10.17,0,0,0,1743569217.6054032
1383,-0.095993109,-0.642499331,0.317431758,1.01,1.36,7.08,0,0,0,1743569217.6185532
1384,-0.081812309,-0.798488133,0.289070157,1.01,1.26,6.76,0,0,0,1743569217.6314487
1385,-0.134172186,-0.353429174,0.131990525,1.26,2.26,8.35,0,0,0,1743569217.6472807
1386,-0.161442956,0.22362031,0.004363323,1.35,2.5,8.33,0,0,0,1743569217.660689
1387,-0.115628063,0.131990525,0.173442094,1.4,2.18,7.86,0,0,0,1743569217.673599
1388,-0.115628063,0.131990525,0.173442094,1.24,1.92,7.89,0,0,0,1743569217.688653
1389,-0.095993109,0.350156681,0.043633231,1.07,2.13,8.83,0,0,0,1743569218
1390,-0.045814893,0.502872991,-0.006544985,0.8,2.15,9.06,0,0,0,1743569217.7144995
1391,-0.046905724,0.382881605,0.016362462,0.9,2.13,8.55,0,0,0,1743569217.7274055
1392,-0.09708394,0.517053791,-0.011999139,0.6,2.14,9.06,0,0,0,1743569217.7404625
1393,-0.185441233,0.640317669,-0.029452431,0.42,2.07,9.09,0,0,0,1743569217.7552097
1394,-0.411243205,0.607592746,-0.001090831,0.34,1.92,8.99,0,0,0,1743569217.7682753
1395,-0.833394718,0.841030533,-0.076358155,0.27,1.87,9.11,0,0,0,1743569217.781174
1396,-0.939205304,0.958840258,-0.129808863,0.24,2,9.13,0,0,0,1743569217.7969203
1397,-0.841030533,0.983929366,-0.13962634,0.07,1.73,8.92,0,0,0,1743569217.8104095
1398,-1.36681097,1.282817,-0.283616003,-0.1,1.47,8.82,0,0,0,1743569217.823314
1399,-1.36681097,1.282817,-0.283616003,-0.45,1.76,10.29,0,0,0,1743569217.8384366
1400,-1.661335282,1.568614665,-0.39051742,-0.44,1.67,10.02,0,0,0,1743569217.8513374
1401,-1.883864761,1.622065374,-0.385063266,-0.12,1.78,9.18,0,0,0,1743569217.864234
1402,-2.110757564,1.631882851,-0.323976742,0,1.91,8.32,0,0,0,1743569217.8771303
1403,-2.465277568,1.794416637,-0.198531202,-0.44,0.15,6.28,0,0,0,1743569217.8902812
1404,-2.68998871,2.545999046,-0.0283616,-0.79,-0.22,6.32,0,0,0,1743569217.9050884
1405,-2.502365815,3.072870314,-0.08399397,-1.86,-0.07,10.51,0,0,0,1743569217.9181933
1406,-1.682061067,2.729258618,0.100356432,-3.02,-0.43,13.75,0,0,0,1743569217.9310925
1407,-1.050470044,1.631882851,0.398153236,-2.61,-0.56,12.09,0,0,0,1743569217.9469028
1408,-0.366519143,0.916297857,0.802851456,-2.27,-1.03,6.34,0,0,0,1743569217.9602752
1409,-0.405789051,1.141008998,0.811578102,-1.93,-0.98,4.3,0,0,0,1743569217.9731736
1410,-0.69704087,2.059488517,0.680678408,-2.99,-1.35,5.35,0,0,0,1743569217.988277
1411,-1.419170848,3.496112658,0.414515697,-5.33,-2.71,11.77,0,0,0,1743569218.001175
1412,-1.053742536,3.12304853,0.494146344,-6.13,-2.94,14.54,0,0,0,1743569218.014079
1413,-0.513781299,1.9100447,0.602138592,-6.11,-2.78,15.04,0,0,0,1743569218.0269797
1414,0.437423144,0.114537232,0.573776992,-4.83,-1.7,10.26,0,0,0,1743569218.0401182
1415,0.448331452,-0.151625479,0.506145483,-4.39,-1.52,8.09,0,0,0,1743569218.0549803
1416,0.34797502,0.146171325,0.385063266,-3.94,-0.93,6.71,0,0,0,1743569218.0680523
1417,0.066540678,1.158462291,0.211621172,-4.3,-0.98,7.12,0,0,0,1743569218.0809486
1418,-0.09817477,1.402808386,0.251981911,-4.41,-1.01,7.52,0,0,0,1743569218.0968282
1419,-0.09817477,1.539162234,0.226892803,-4.86,-0.67,10.29,0,0,0,1743569218.1101618
1420,0.030543262,1.238092938,0.29343348,-5.09,-0.63,10.9,0,0,0,1743569218.1232557
1421,0.22362031,0.699222532,0.358883327,-5.1,-1.13,8.11,0,0,0,1743569218.1382306
1422,0.06981317,0.36215582,0.442877298,-5.02,-1.15,7.28,0,0,0,1743569218
1423,-0.049087385,0.518144622,0.355610835,-4.85,-1.05,7.02,0,0,0,1743569218.1640263
1424,-0.114537232,0.718857486,0.272707696,-4.76,-0.78,7.02,0,0,0,1743569218.1773355
1425,-0.311977604,1.097375767,0.126536371,-4.53,-0.24,7.65,0,0,0,1743569218.1902328
1426,-0.118900555,1.180278907,0.077448986,-4.97,-0.25,9.22,0,0,0,1743569218.2054129
1427,0.16689711,0.837758041,0.095993109,-5.57,-0.55,9.45,0,0,0,1743569218.2184381
1428,0.412334036,-0.008726646,0.147262156,-5.46,-0.72,8.27,0,0,0,1743569218.2315276
1429,0.226892803,0.005454154,0.127627202,-5.49,-0.94,7.47,0,0,0,1743569218.2474384
1430,-0.04145157,0.291251819,0.017453293,-5.2,-0.8,7.03,0,0,0,1743569218.2603366
1431,-0.138535509,0.397062405,0.002181662,-5.22,-0.72,7.12,0,0,0,1743569218.2732315
1432,-0.172351264,0.448331452,-0.009817477,-5.51,-0.59,8.85,0,0,0,1743569218.288217
1433,-0.054541539,0.077448986,0.008726646,-5.54,-0.75,8.85,0,0,0,1743569218.3011143
1434,0.001090831,-0.157079633,-0.016362462,-5.52,-0.92,8.38,0,0,0,1743569218.3140252
1435,0.038179077,-0.27925268,-0.057814031,-5.16,-1,7.01,0,0,0,1743569218.3271782
1436,-0.020725785,-0.074176493,-0.148352986,-5,-0.91,6.95,0,0,0,1743569218.3400743
1437,0.06981317,-0.021816616,-0.148352986,-5.14,-0.83,7.73,0,0,0,1743569218.3552742
1438,0.146171325,-0.151625479,-0.102538094,-5.25,-0.64,8.63,0,0,0,1743569218.368294
1439,0.251981911,-0.518144622,-0.076358155,-5.24,-0.85,8.32,0,0,0,1743569218.3811917
1440,0.327249235,-0.602138592,-0.122173048,-5.23,-0.89,8.87,0,0,0,1743569218.3971624
1441,0.34797502,-1.034107582,-0.11126474,-4.66,-0.27,8.02,0,0,0,1743569218.4100683
1442,0.310886773,-1.081013305,-0.079630647,-4.77,-0.69,7.7,0,0,0,1743569218.4229658
1443,0.294524311,-1.065741674,-0.118900555,-4.56,-0.48,8.8,0,0,0,1743569218.437962
1444,0.472329729,-1.168279768,-0.187622895,-4.9,-0.61,9.38,0,0,0,1743569218.4508722
1445,0.562868684,-1.451895772,-0.16689711,-4.84,-0.69,8.88,0,0,0,1743569218.4637704
1446,0.496328006,-1.527163095,-0.188713725,-4.4,-0.61,8.17,0,0,0,1743569218.4766676
1447,0.566141176,-1.594794604,-0.290160988,-4.11,-0.44,8.27,0,0,0,1743569218.4896643
1448,0.635954346,-1.641700328,-0.327249235,-4.13,-0.33,8.12,0,0,0,1743569218.5043721
