Packet number,Gyroscope X (deg/s),Gyroscope Y (deg/s),Gyroscope Z (deg/s),Accelerometer X (g),Accelerometer Y (g),Accelerometer Z (g),Magnetometer X (microteslas),Magnetometer Y (microteslas),Magnetometer Z (microteslas),Timestamp
1753,-0.019634954084936207,0.018544123302439753,-0.1734420944169365,-9.14,4.13,1.52,24.375,-3.0625,-34.875,1746516942.3136249
1754,-0.04799655442984406,-0.02945243112740431,-0.19198621771937624,-9.4,4.07,1.57,26.5625,-3.0625,-35.25,1746516942.330022
1755,-0.02945243112740431,-0.031634092692397225,-0.14726215563702155,-9.47,3.99,1.53,26.5625,-3.0625,-35.25,1746516942.3522534
1756,0.020725784867432664,-0.017453292519943295,-0.028361600344907856,-9.1,3.84,1.4000000000000001,26.5625,-3.0625,-35.25,1746516942.369376
1757,0.06326818538479445,-0.0545415391248228,0.061086523819801536,-8.72,3.83,1.4000000000000001,25.875,-3.375,-36.5625,1746516942.392749
1758,0.06326818538479445,-0.11671889372712078,-0.011999138607461015,-8.23,3.94,1.51,25.875,-3.375,-36.5625,1746516942.413278
1759,0.007635815477475192,-0.19525871006686563,-0.26616271092913524,-8.11,4.05,1.59,26.5625,-2.0,-38.1875,1746516942.4299147
1760,-0.04908738521234052,-0.20289452554434081,-0.559596191420682,-8.57,4.16,1.6600000000000001,26.5625,-2.0,-38.1875,1746516942.4526398
1761,-0.037088246604879506,-0.08290313946973066,-0.6337726846304409,-8.72,3.94,1.61,26.5625,-2.0,-38.1875,1746516942.4697998
1762,0.02945243112740431,0.09708393964218458,-0.6119560689805118,-8.700000000000001,3.84,1.73,24.375,-3.0625,-37.375,1746516942.4933927
1763,0.08835729338221293,0.210530341021816,-0.5323254218582705,-9.13,3.59,1.6,24.375,-3.0625,-37.375,1746516942.5132406
1764,0.11780972450961724,0.2530727415391778,-0.4428772976935611,-9.120000000000001,3.34,1.3800000000000001,24.75,-2.25,-37.375,1746516942.530658
1765,0.08944812416470939,0.19853120241435498,-0.49632800603588745,-9.49,3.31,1.36,24.75,-2.25,-37.375,1746516942.5537994
1766,0.038179077387375956,0.10362892433716332,-0.41233403578366035,-9.63,3.24,1.27,24.75,-2.25,-37.375,1746516942.570327
1767,-0.013089969389957472,-0.039269908169872414,-0.28579766501407144,-9.22,2.88,1.21,24.75,-0.875,-35.25,1746516942.592964
1768,-0.07635815477475191,-0.2083486794568231,-0.36979163526629855,-9.36,2.85,1.3900000000000001,24.75,-0.875,-35.25,1746516942.6133003
1769,-0.11780972450961724,-0.26616271092913524,-0.346884188833873,-9.58,2.9,1.3900000000000001,27.0,-1.1875,-35.25,1746516942.6306443
1770,-0.1832595714594046,-0.21489366415180183,-0.2454369260617026,-9.620000000000001,2.98,1.58,27.0,-1.1875,-35.25,1746516942.6530685
1771,-0.26725354171163174,-0.12435470920459599,-0.04363323129985824,-9.38,2.92,1.68,27.0,-1.1875,-35.25,1746516942.6709082
1772,-0.32506757318394386,-0.13853550937704992,-0.17998707911191522,-8.92,2.92,1.98,26.1875,-0.5,-37.375,1746516942.6929195
1773,-0.3621558197888234,-0.1461713248545251,-0.4276056667386107,-9.66,3.1,2.1,26.1875,-0.5,-37.375,1746516942.7133753
1774,-0.3785182815262702,-0.03490658503988659,-0.4243331743911214,-9.71,3.11,2.05,25.5,2.0625,-35.6875,1746516942.7312427
1775,-0.3687008044838021,0.08508480103472356,-0.2596177262341565,-9.42,2.77,2.18,25.5,2.0625,-35.6875,1746516942.7531326
1776,-0.30652344988150415,0.08072147790473774,-0.23452861823673804,-9.42,2.74,2.17,25.5,2.0625,-35.6875,1746516942.7712295
1777,-0.17016960206944712,0.06981317007977318,-0.25743606466916363,-9.53,2.7,2.1,24.75,1.6875,-37.375,1746516942.7929494
1778,-0.025089107997418487,0.07744898555724837,-0.26070855701665296,-9.71,2.71,2.07,24.75,1.6875,-37.375,1746516942.8133237
1779,0.07417649320975901,0.06544984694978735,-0.1559888018969932,-9.78,2.72,2.04,24.0,2.0625,-36.5625,1746516942.831562
1780,0.15489797111449674,0.02181661564992912,-0.044724062082354694,-9.42,2.5100000000000002,2.05,24.0,2.0625,-36.5625,1746516942.8530335
1781,0.2301652951067522,-0.050178215994836975,-0.06981317007977318,-9.42,2.52,2.02,24.375,3.0625,-34.875,1746516942.8715434
1782,0.2683443724941282,-0.08508480103472356,-0.15926129424448257,-9.58,2.57,1.83,24.375,3.0625,-34.875,1746516942.8927574
1783,0.2181661564992912,-0.07635815477475191,-0.23234695667174513,-9.67,2.64,1.73,24.375,3.0625,-34.875,1746516942.9143913
1784,0.11780972450961724,-0.04581489286485115,-0.17780541754692233,-9.68,2.71,1.77,26.1875,1.25,-36.875,1746516942.932047
1785,0.055632369907319255,-0.039269908169872414,-0.09926560120717749,-9.61,2.36,1.77,26.1875,1.25,-36.875,1746516942.9531415
1786,0.05781403147231216,-0.04581489286485115,-0.09272061651219876,-9.44,2.21,1.74,27.0,2.0625,-36.875,1746516942.9720054
1787,0.06872233929727672,-0.061086523819801536,-0.07417649320975901,-9.46,2.08,1.73,27.0,2.0625,-36.875,1746516942.9930797
1788,0.04145156973486533,-0.05781403147231216,0.00545415391248228,-9.16,2.22,1.96,27.0,2.0625,-36.875,1746516943.0133555
1789,0.015271630954950384,-0.09272061651219876,0.011999138607461015,-9.05,2.11,1.93,26.1875,3.0625,-36.0625,1746516943.0323458
1790,0.02181661564992912,-0.12871803233458182,-0.032724923474893676,-9.05,2.12,1.9100000000000001,26.1875,3.0625,-36.0625,1746516943.053285
1791,0.037088246604879506,-0.15817046346198613,-0.09490227807719166,-9.08,2.08,1.85,24.75,2.0625,-36.5625,1746516943.0723212
1792,0.037088246604879506,-0.16253378659197193,-0.09490227807719166,-9.24,2.21,1.84,24.75,2.0625,-36.5625,1746516943.0932531
1793,0.025089107997418487,-0.14180800172453928,-0.026179938779914945,-9.120000000000001,2.22,2.04,24.75,2.0625,-36.5625,1746516943.113448
1794,0.04690572364734761,-0.08835729338221293,-0.001090830782496456,-9.15,2.22,2.02,23.6875,1.25,-36.875,1746516943.1327994
1795,0.09926560120717749,0.015271630954950384,-0.07744898555724837,-8.94,2.05,1.87,23.6875,1.25,-36.875,1746516943.1532562
1796,0.10799224746714914,0.01090830782496456,-0.15271630954950383,-9.35,2.0100000000000002,1.74,24.0,1.6875,-36.0625,1746516943.1727672
1797,0.019634954084936207,-0.00545415391248228,-0.16689710972195776,-9.43,2.09,1.81,24.0,1.6875,-36.0625,1746516943.193135
1798,-0.05235987755982989,-0.05890486225480862,-0.19962203319685143,-9.540000000000001,1.98,1.9100000000000001,24.0,1.6875,-36.0625,1746516943.213575
1799,-0.0719948316447661,-0.07963064712224129,-0.23234695667174513,-9.64,2.05,1.85,25.5,1.6875,-38.5625,1746516943.2330005
1800,-0.0818123086872342,0.015271630954950384,-0.18216874067690814,-9.69,2.1,1.81,25.5,1.6875,-38.5625,1746516943.2533247
1801,-0.10799224746714914,0.05999569303730508,-0.11671889372712078,-9.36,2.19,1.8900000000000001,25.875,2.375,-38.1875,1746516943.2731013
1802,-0.1538071403320003,-0.050178215994836975,-0.21598449493429828,-9.120000000000001,2.0,2.09,25.875,2.375,-38.1875,1746516943.2932193
1803,-0.17235126363444003,-0.16580627893946132,-0.34143003492139073,-9.31,1.92,2.17,25.875,2.375,-38.1875,1746516943.3136485
1804,-0.14289883250703572,-0.1930770485018727,-0.385063266221249,-9.93,2.22,2.4,24.0,3.875,-36.875,1746516943.333351
1805,-0.06872233929727672,-0.10144726277217041,-0.22252947962927702,-9.86,2.21,2.42,24.0,3.875,-36.875,1746516943.35342
1806,0.015271630954950384,-0.04363323129985824,-0.14726215563702155,-9.8,2.14,2.46,23.25,3.5,-38.1875,1746516943.3732388
1807,0.09599310885968812,-0.006544984694978736,-0.0719948316447661,-9.69,2.0300000000000002,2.24,23.25,3.5,-38.1875,1746516943.3932765
1808,0.15489797111449674,-0.00545415391248228,-0.04690572364734761,-9.69,1.97,2.12,23.25,3.5,-38.1875,1746516943.4136355
1809,0.14289883250703572,0.004363323129985824,-0.038179077387375956,-9.8,1.99,1.93,23.0,2.0625,-38.1875,1746516943.4335542
1810,0.05999569303730508,0.044724062082354694,-0.018544123302439753,-9.75,1.96,1.86,23.0,2.0625,-38.1875,1746516943.4545352
1811,-0.0818123086872342,0.05345070834232634,-0.07308566242726255,-9.46,2.02,2.06,23.0,3.875,-35.6875,1746516943.473754
1812,-0.22143864884678055,-0.039269908169872414,-0.18653206380689397,-9.55,1.81,2.09,23.0,3.875,-35.6875,1746516943.4945745
1813,-0.28361600344907856,-0.1439896632895322,-0.22252947962927702,-9.84,1.7,2.1,23.0,3.875,-35.6875,1746516943.514102
1814,-0.2585268954516601,-0.1439896632895322,-0.14508049407202864,-10.01,1.7,2.09,24.75,3.0625,-38.1875,1746516943.5347476
1815,-0.18544123302439752,-0.08290313946973066,0.004363323129985824,-9.81,1.77,2.19,24.75,3.0625,-38.1875,1746516943.5555112
1816,-0.14508049407202864,-0.05890486225480862,0.04254240051736178,-9.700000000000001,1.87,2.41,24.375,5.25,-37.75,1746516943.574071
1817,-0.13308135546456762,-0.07963064712224129,0.044724062082354694,-9.57,1.81,2.48,24.375,5.25,-37.75,1746516943.5956264
1818,-0.1189005552921137,-0.15817046346198613,0.007635815477475192,-9.43,1.69,2.44,24.375,5.25,-37.75,1746516943.614472
1819,-0.08290313946973066,-0.20180369476184434,-0.020725784867432664,-9.66,1.67,2.36,24.0,5.6875,-38.5625,1746516943.634842
1820,-0.025089107997418487,-0.12762720155208535,0.08944812416470939,-9.540000000000001,1.8800000000000001,2.48,24.0,5.6875,-38.5625,1746516943.6555262
1821,0.05345070834232634,-0.004363323129985824,0.21925698728178766,-9.34,1.9000000000000001,2.49,22.1875,4.25,-37.75,1746516943.6744394
1822,0.12871803233458182,0.09926560120717749,0.28688849579656794,-9.13,1.8900000000000001,2.49,22.1875,4.25,-37.75,1746516943.6968265
1823,0.17235126363444003,0.136353847812057,0.25743606466916363,-9.05,1.78,2.36,22.1875,4.25,-37.75,1746516943.7148058
1824,0.18435040224190105,0.1308996938995747,0.21707532571679475,-8.81,1.79,2.32,22.1875,5.0,-37.75,1746516943.7378979
1825,0.2083486794568231,0.06763150851478027,0.09817477042468103,-8.66,1.85,2.19,22.1875,5.0,-37.75,1746516943.7579784
1826,0.24216443371421323,0.04254240051736178,-0.06217735460229799,-9.0,1.79,2.04,23.6875,4.25,-36.6875,1746516943.7748225
1827,0.2378011105842274,0.11126473981463851,-0.07963064712224129,-9.34,1.8800000000000001,1.9000000000000001,23.6875,4.25,-36.6875,1746516943.7979586
1828,0.21598449493429828,0.22252947962927702,-0.01090830782496456,-9.370000000000001,2.05,1.99,23.6875,4.25,-36.6875,1746516943.8152723
1829,0.21707532571679475,0.29561514205653955,0.0545415391248228,-9.38,2.1,2.04,24.375,3.5,-37.5,1746516943.8384066
1830,0.2279836335417593,0.33815754257390135,0.05781403147231216,-9.52,2.1,1.92,24.375,3.5,-37.5,1746516943.8584156
1831,0.21925698728178766,0.35561083509384467,0.09272061651219876,-9.42,2.13,1.85,25.1875,4.5625,-38.25,1746516943.8753636
1832,0.17562375598192942,0.2628902185816459,0.06435901616729091,-9.39,2.0,1.74,25.1875,4.5625,-38.25,1746516943.8981502
1833,0.09490227807719166,0.11453723216212788,0.007635815477475192,-9.53,2.0,1.68,25.1875,4.5625,-38.25,1746516943.9156642
1834,0.039269908169872414,0.01090830782496456,0.04908738521234052,-9.72,2.23,1.69,24.0,3.5,-36.6875,1746516943.9381638
1835,0.031634092692397225,-0.03381575425739013,0.1265363707695889,-9.97,2.31,1.7,24.0,3.5,-36.6875,1746516943.9595144
1836,0.028361600344907856,-0.06217735460229799,0.18762289458939044,-9.68,2.25,1.81,24.0,1.25,-38.5625,1746516943.975804
1837,0.022907446432425576,-0.1407171709420428,0.12326387842209953,-9.450000000000001,2.2800000000000002,1.86,24.0,1.25,-38.5625,1746516943.9989476
1838,0.02945243112740431,-0.1908953869368798,0.008726646259971648,-9.63,2.32,1.94,24.0,1.25,-38.5625,1746516944.0181088
1839,0.037088246604879506,-0.1407171709420428,0.004363323129985824,-9.81,2.32,1.8900000000000001,23.0,2.0625,-36.5625,1746516944.0382588
1840,0.044724062082354694,-0.05781403147231216,0.07090400086226964,-9.83,2.29,1.9100000000000001,23.0,2.0625,-36.5625,1746516944.0591235
1841,0.05781403147231216,-0.006544984694978736,0.14944381720201447,-9.84,2.27,1.94,23.6875,2.0625,-34.875,1746516944.0760982
1842,0.08944812416470939,0.014180800172453928,0.23234695667174513,-9.5,2.2,1.98,23.6875,2.0625,-34.875,1746516944.0990498
1843,0.11562806294462433,-0.05235987755982989,0.19198621771937624,-9.26,2.1,2.07,23.6875,2.0625,-34.875,1746516944.1164649
1844,0.1308996938995747,-0.10799224746714914,0.09926560120717749,-9.33,2.18,2.11,25.875,1.25,-36.0625,1746516944.1390383
1845,0.15817046346198613,-0.11017390903214205,0.07963064712224129,-9.52,2.37,2.24,25.875,1.25,-36.0625,1746516944.1593223
1846,0.27598018797160334,-0.03381575425739013,0.18871372537188688,-9.21,2.23,2.08,24.0,1.25,-37.0,1746516944.1764667
1847,0.3523383427463553,-0.014180800172453928,0.21489366415180183,-9.01,2.33,2.18,24.0,1.25,-37.0,1746516944.1990864
1848,0.41015237421866746,-0.032724923474893676,0.18980455615438332,-8.94,2.4,2.21,24.0,1.25,-37.0,1746516944.2170105
1849,0.4188790204786391,-0.05126904677733343,0.1189005552921137,-9.16,2.54,2.07,24.0,1.25,-37.875,1746516944.239172
1850,0.39269908169872414,-0.05781403147231216,0.05235987755982989,-9.69,2.72,1.93,24.0,1.25,-37.875,1746516944.259256
1851,0.39924406639370286,0.009817477042468103,0.16907877128695067,-9.78,2.73,1.84,23.25,-2.0,-37.375,1746516944.2770376
1852,0.44505895925855404,0.11235557059713497,0.4145156973486533,-9.22,2.58,1.52,23.25,-2.0,-37.375,1746516944.2989657
1853,0.4526947747360292,0.09599310885968812,0.4756022211684548,-8.94,2.63,1.6300000000000001,23.25,-2.0,-37.375,1746516944.3173325
1854,0.4232423436086249,-0.026179938779914945,0.38288160465625604,-8.59,2.79,1.62,23.25,-2.0,-35.75,1746516944.3392355
1855,0.36979163526629855,-0.17016960206944712,0.21271200258680892,-8.89,2.86,1.54,23.25,-2.0,-35.75,1746516944.3593028
1856,0.29343348049154666,-0.19853120241435498,0.1559888018969932,-9.03,2.94,1.55,24.0,-2.0,-37.0,1746516944.3773708
1857,0.2279836335417593,-0.0719948316447661,0.2552544031041707,-8.6,3.06,1.8800000000000001,24.0,-2.0,-37.0,1746516944.3990996
1858,0.2083486794568231,0.009817477042468103,0.1908953869368798,-8.540000000000001,3.0300000000000002,1.96,25.1875,-4.5,-37.875,1746516944.417732
1859,0.19962203319685143,0.03599741582238305,-0.014180800172453928,-8.84,3.0100000000000002,1.85,25.1875,-4.5,-37.875,1746516944.4392502
1860,0.17889624832941878,0.04145156973486533,-0.2083486794568231,-9.59,3.02,1.71,25.1875,-4.5,-37.875,1746516944.459332
1861,0.18653206380689397,0.10471975511965978,-0.27598018797160334,-9.86,3.0500000000000003,1.71,24.75,-3.0625,-38.6875,1746516944.4777973
1862,0.24980024919168842,0.25416357232167425,-0.08944812416470939,-9.78,3.0300000000000002,1.56,24.75,-3.0625,-38.6875,1746516944.4991846
1863,0.35452000431134817,0.32179508083645453,0.10035643198967395,-9.65,2.98,1.5,23.0,-3.0625,-37.5,1746516944.5180929
1864,0.4363323129985824,0.2519819107566813,0.136353847812057,-9.5,2.96,1.26,23.0,-3.0625,-37.5,1746516944.5393865
1865,0.47451139038595835,0.10471975511965978,0.18216874067690814,-9.5,2.99,1.34,23.0,-3.0625,-37.5,1746516944.55935
1866,0.4919646829059016,-0.037088246604879506,0.25416357232167425,-9.48,2.98,1.27,24.375,-6.0,-37.375,1746516944.5781283
1867,0.5181446216858165,-0.11235557059713497,0.3785182815262702,-9.28,3.16,1.18,24.375,-6.0,-37.375,1746516944.599186
1868,0.5148721293383273,-0.13308135546456762,0.5214171140333059,-9.03,3.21,1.18,23.0,-6.75,-35.375,1746516944.6184046
1869,0.44505895925855404,-0.13853550937704992,0.5115996369908379,-8.78,3.24,1.3,23.0,-6.75,-35.375,1746516944.6393383
1870,0.32834006553143325,-0.11562806294462433,0.39924406639370286,-8.73,3.2800000000000002,1.36,23.0,-6.75,-35.375,1746516944.6595557
1871,0.21925698728178766,-0.04799655442984406,0.25634523388666713,-8.88,3.35,1.28,24.0,-6.75,-35.375,1746516944.6784186
1872,0.14944381720201447,0.008726646259971648,0.15162547876700738,-9.25,3.49,1.29,24.0,-6.75,-35.375,1746516944.699145
1873,0.11562806294462433,0.0818123086872342,0.19634954084936207,-9.1,3.48,1.37,24.75,-9.5625,-37.0,1746516944.718748
1874,0.08944812416470939,0.044724062082354694,0.18216874067690814,-9.16,3.41,1.4000000000000001,24.75,-9.5625,-37.0,1746516944.7392697
1875,0.09053895494720585,-0.017453292519943295,0.12980886311707826,-9.21,3.38,1.47,24.75,-9.5625,-37.0,1746516944.7593813
1876,0.11453723216212788,-0.031634092692397225,0.1189005552921137,-9.290000000000001,3.5,1.55,23.6875,-8.5625,-36.6875,1746516944.7788675
1877,0.2585268954516601,-0.00545415391248228,0.2203478180642841,-9.17,3.62,1.57,23.6875,-8.5625,-36.6875,1746516944.7991967
1878,0.30543261909900765,-0.001090830782496456,0.25416357232167425,-9.1,3.7600000000000002,1.47,22.5625,-9.25,-35.75,1746516944.8191118
1879,0.38069994309126315,-0.01090830782496456,0.30652344988150415,-8.77,3.87,1.46,22.5625,-9.25,-35.75,1746516944.8393948
1880,0.36979163526629855,-0.06654067773228381,0.22907446432425577,-8.81,3.94,1.45,22.5625,-9.25,-35.75,1746516944.8594732
1881,0.33488505022641196,-0.0818123086872342,0.20289452554434081,-9.11,3.99,1.21,21.75,-11.0625,-37.0,1746516944.879188
1882,0.28579766501407144,-0.017453292519943295,0.2977968036215325,-8.9,3.93,0.98,21.75,-11.0625,-37.0,1746516944.8992507
1883,0.21925698728178766,0.011999138607461015,0.30652344988150415,-8.51,3.93,0.91,23.375,-10.75,-35.375,1746516944.9192758
1884,0.1461713248545251,-0.016362461737446838,0.210530341021816,-8.27,3.93,0.9400000000000001,23.375,-10.75,-35.375,1746516944.939342
1885,0.07853981633974483,-0.07963064712224129,0.07963064712224129,-8.17,4.04,1.09,23.375,-10.75,-35.375,1746516944.9593997
1886,0.05890486225480862,-0.11017390903214205,-0.0272707695624114,-8.5,4.19,1.07,23.75,-12.1875,-35.0,1746516944.9793158
1887,0.06763150851478027,-0.013089969389957472,0.05126904677733343,-8.86,4.3100000000000005,1.04,23.75,-12.1875,-35.0,1746516944.999361
1888,0.0818123086872342,0.10690141668465268,0.13526301702956053,-8.64,4.33,1.2,22.6875,-12.5625,-36.6875,1746516945.0198405
1889,0.08072147790473774,0.14180800172453928,0.0818123086872342,-8.6,4.26,1.25,22.6875,-12.5625,-36.6875,1746516945.039634
1890,0.09053895494720585,0.09381144729469522,0.00545415391248228,-8.61,4.09,1.1,22.6875,-12.5625,-36.6875,1746516945.0596602
1891,0.11562806294462433,0.0272707695624114,-0.05999569303730508,-8.9,4.16,1.06,22.25,-12.1875,-35.375,1746516945.0796747
1892,0.15707963267948966,0.04363323129985824,0.031634092692397225,-9.15,4.32,1.07,22.25,-12.1875,-35.375,1746516945.1005805
1893,0.20289452554434081,0.09708393964218458,0.20180369476184434,-8.94,4.26,1.09,21.875,-13.6875,-35.75,1746516945.119949
1894,0.24870941840919197,0.09381144729469522,0.2399827721492203,-8.48,4.12,1.01,21.875,-13.6875,-35.75,1746516945.1407204
1895,0.2879793265790644,0.028361600344907856,0.15271630954950383,-8.45,4.19,0.87,21.875,-13.6875,-35.75,1746516945.1600196
1896,0.30325095753401476,-0.009817477042468103,0.11344640137963143,-8.71,4.28,0.73,21.875,-14.375,-35.0,1746516945.1814494
1897,0.2825251726665821,0.032724923474893676,0.19198621771937624,-8.74,4.46,0.67,21.875,-14.375,-35.0,1746516945.2005727
1898,0.22143864884678055,0.08944812416470939,0.23671027980173096,-8.620000000000001,4.47,0.77,22.25,-13.25,-35.0625,1746516945.2202559
1899,0.1636246173744684,0.11780972450961724,0.1908953869368798,-8.38,4.37,0.97,22.25,-13.25,-35.0625,1746516945.2415514
1900,0.12217304763960307,0.07963064712224129,0.09272061651219876,-8.23,4.26,0.9500000000000001,22.25,-13.25,-35.0625,1746516945.260372
1901,0.11562806294462433,0.01090830782496456,-0.04799655442984406,-8.65,4.21,0.75,23.375,-15.0625,-33.25,1746516945.281354
1902,0.1308996938995747,0.050178215994836975,0.01090830782496456,-8.85,4.3,0.7000000000000001,23.375,-15.0625,-33.25,1746516945.302808
1903,0.136353847812057,0.11344640137963143,0.11999138607461016,-8.63,4.32,0.65,24.5,-15.1875,-35.875,1746516945.3206472
1904,0.11562806294462433,0.10581058590215622,0.10799224746714914,-8.46,4.32,0.71,24.5,-15.1875,-35.875,1746516945.3427505
1905,0.07744898555724837,0.05126904677733343,0.032724923474893676,-8.38,4.34,0.81,24.5,-15.1875,-35.875,1746516945.3606951
1906,0.04145156973486533,-0.014180800172453928,-0.06435901616729091,-8.65,4.37,0.79,21.5625,-14.375,-33.75,1746516945.382602
1907,0.031634092692397225,-0.025089107997418487,-0.06981317007977318,-8.81,4.45,0.77,21.5625,-14.375,-33.75,1746516945.4044409
1908,0.05235987755982989,0.038179077387375956,0.02399827721492203,-8.89,4.47,0.75,22.6875,-16.0,-33.25,1746516945.4209597
1909,0.09272061651219876,0.10253809355466686,0.05999569303730508,-8.69,4.43,0.81,22.6875,-16.0,-33.25,1746516945.4427376
1910,0.12762720155208535,0.09708393964218458,0.003272492347489368,-8.67,4.43,0.77,22.6875,-16.0,-33.25,1746516945.4610434
1911,0.14726215563702155,0.050178215994836975,-0.06763150851478027,-8.83,4.5,0.73,22.25,-16.375,-34.25,1746516945.481601
1912,0.16689710972195776,0.009817477042468103,-0.037088246604879506,-8.96,4.51,0.64,22.25,-16.375,-34.25,1746516945.50413
1913,0.1734420944169365,0.025089107997418487,0.07417649320975901,-8.76,4.58,0.65,23.0625,-15.5625,-33.375,1746516945.5214107
1914,0.17235126363444003,0.032724923474893676,0.10581058590215622,-8.6,4.5600000000000005,0.64,23.0625,-15.5625,-33.375,1746516945.5443573
1915,0.1712604328519436,0.032724923474893676,0.026179938779914945,-8.58,4.62,0.75,23.0625,-15.5625,-33.375,1746516945.5614495
1916,0.17889624832941878,0.02181661564992912,-0.03599741582238305,-8.6,4.69,0.76,24.0625,-16.0,-33.75,1746516945.5837994
1917,0.16907877128695067,-0.006544984694978736,-0.039269908169872414,-8.85,4.74,0.6,24.0625,-16.0,-33.75,1746516945.6043372
1918,0.12326387842209953,0.006544984694978736,0.025089107997418487,-8.75,4.73,0.6,22.6875,-16.375,-33.75,1746516945.6217356
1919,0.10362892433716332,0.020725784867432664,-0.007635815477475192,-8.77,4.73,0.6,22.6875,-16.375,-33.75,1746516945.6442065
1920,0.1308996938995747,0.028361600344907856,-0.02945243112740431,-8.790000000000001,4.7,0.58,22.6875,-16.375,-33.75,1746516945.6617823
1921,0.16035212502697901,0.008726646259971648,-0.03490658503988659,-8.86,4.64,0.54,22.25,-16.0,-32.5625,1746516945.6835625
1922,0.17453292519943295,0.003272492347489368,0.019634954084936207,-9.09,4.57,0.41000000000000003,22.25,-16.0,-32.5625,1746516945.7048929
1923,0.16471544815696484,0.039269908169872414,0.13308135546456762,-9.040000000000001,4.55,0.38,21.875,-17.75,-33.375,1746516945.7223542
1924,0.1505346479845109,0.05890486225480862,0.19962203319685143,-8.83,4.49,0.3,21.875,-17.75,-33.375,1746516945.7445877
1925,0.11562806294462433,-0.009817477042468103,0.20943951023931956,-8.63,4.42,0.3,21.875,-17.75,-33.375,1746516945.7622144
1926,0.0545415391248228,-0.11780972450961724,0.16035212502697901,-8.6,4.41,0.33,23.375,-18.5,-33.375,1746516945.7849467
1927,0.001090830782496456,-0.16035212502697901,0.1341721862470641,-8.72,4.48,0.36,23.375,-18.5,-33.375,1746516945.8050742
1928,-0.011999138607461015,-0.10144726277217041,0.19744037163185854,-8.49,4.48,0.41000000000000003,23.75,-16.6875,-33.75,1746516945.8225913
1929,0.009817477042468103,-0.061086523819801536,0.19634954084936207,-8.15,4.38,0.43,23.75,-16.6875,-33.75,1746516945.844822
1930,0.04145156973486533,-0.05345070834232634,0.1265363707695889,-8.14,4.36,0.46,23.75,-16.6875,-33.75,1746516945.862835
1931,0.07744898555724837,-0.03381575425739013,0.09817477042468103,-8.26,4.45,0.48,23.0625,-17.75,-33.75,1746516945.8849037
1932,0.10144726277217041,-0.004363323129985824,0.07635815477475191,-8.39,4.42,0.35000000000000003,23.0625,-17.75,-33.75,1746516945.9050379
1933,0.11780972450961724,0.05345070834232634,0.13526301702956053,-8.290000000000001,4.45,0.35000000000000003,22.25,-18.0625,-33.375,1746516945.9231906
1934,0.1189005552921137,0.0545415391248228,0.10253809355466686,-8.06,4.47,0.37,22.25,-18.0625,-33.375,1746516945.9450455
1935,0.09599310885968812,0.026179938779914945,0.009817477042468103,-8.03,4.5,0.42,22.25,-18.0625,-33.375,1746516945.9631886
1936,0.07526732399225546,-0.026179938779914945,-0.10144726277217041,-8.34,4.6000000000000005,0.39,21.5625,-18.375,-31.75,1746516945.9849694
1937,0.06326818538479445,-0.018544123302439753,-0.12762720155208535,-8.59,4.72,0.37,21.5625,-18.375,-31.75,1746516946.0051403
1938,0.07853981633974483,0.05672320068981571,-0.08290313946973066,-8.71,4.74,0.35000000000000003,21.5625,-20.0,-33.0,1746516946.0249767
1939,0.1090830782496456,0.15271630954950383,-0.015271630954950384,-8.43,4.73,0.29,21.5625,-20.0,-33.0,1746516946.0450208
1940,0.11453723216212788,0.16907877128695067,-0.028361600344907856,-8.36,4.73,0.27,23.375,-18.875,-33.0,1746516946.0636594
1941,0.07853981633974483,0.08835729338221293,-0.10035643198967395,-8.42,4.73,0.4,23.375,-18.875,-33.0,1746516946.0850098
1942,0.05126904677733343,0.013089969389957472,-0.15817046346198613,-8.64,4.8100000000000005,0.38,23.375,-18.875,-33.0,1746516946.105137
1943,0.061086523819801536,0.009817477042468103,-0.11999138607461016,-8.69,4.82,0.38,22.25,-17.75,-32.5625,1746516946.123867
1944,0.08508480103472356,0.06872233929727672,-0.0719948316447661,-8.620000000000001,4.86,0.33,22.25,-17.75,-32.5625,1746516946.1451027
1945,0.10035643198967395,0.10471975511965978,-0.07308566242726255,-8.68,4.86,0.34,23.75,-18.875,-33.75,1746516946.1639643
1946,0.09053895494720585,0.12326387842209953,-0.06544984694978735,-8.6,4.7700000000000005,0.31,23.75,-18.875,-33.75,1746516946.1850264
1947,0.07635815477475191,0.0818123086872342,-0.08290313946973066,-8.67,4.76,0.24,23.75,-18.875,-33.75,1746516946.205215
1948,0.05781403147231216,0.017453292519943295,-0.09490227807719166,-8.84,4.78,0.16,21.5625,-18.1875,-32.5625,1746516946.2242694
1949,0.02181661564992912,-0.016362461737446838,-0.08072147790473774,-8.82,4.82,0.16,21.5625,-18.1875,-32.5625,1746516946.2452285
1950,-0.008726646259971648,-0.02181661564992912,-0.04908738521234052,-8.71,4.88,0.24,21.25,-18.5,-30.5,1746516946.2644563
1951,-0.0272707695624114,-0.02399827721492203,-0.04145156973486533,-8.620000000000001,4.92,0.29,21.25,-18.5,-30.5,1746516946.2852004
1952,-0.0272707695624114,-0.04581489286485115,-0.0545415391248228,-8.72,4.9,0.29,21.25,-18.5,-30.5,1746516946.305207
1953,-0.026179938779914945,-0.044724062082354694,-0.05126904677733343,-8.71,4.9,0.31,23.375,-19.5625,-32.1875,1746516946.32471
1954,-0.05235987755982989,-0.02181661564992912,-0.044724062082354694,-8.59,4.8500000000000005,0.39,23.375,-19.5625,-32.1875,1746516946.3451293
1955,-0.06435901616729091,-0.0272707695624114,-0.06435901616729091,-8.61,4.79,0.4,24.0625,-18.1875,-32.5625,1746516946.365002
1956,-0.05999569303730508,-0.028361600344907856,-0.06217735460229799,-8.6,4.76,0.36,24.0625,-18.1875,-32.5625,1746516946.3851876
1957,-0.015271630954950384,-0.019634954084936207,-0.037088246604879506,-8.75,4.66,0.24,24.0625,-18.1875,-32.5625,1746516946.405427
1958,0.0272707695624114,0.011999138607461015,0.003272492347489368,-8.74,4.69,0.24,24.0625,-17.375,-32.1875,1746516946.4268093
1959,0.04036073895236887,0.016362461737446838,0.04254240051736178,-8.6,4.66,0.28,24.0625,-17.375,-32.1875,1746516946.4452374
1960,0.014180800172453928,-0.016362461737446838,0.018544123302439753,-8.6,4.67,0.29,23.375,-18.875,-33.75,1746516946.465263
1961,-0.018544123302439753,-0.03381575425739013,0.003272492347489368,-8.700000000000001,4.58,0.24,23.375,-18.875,-33.75,1746516946.4852214
1962,-0.028361600344907856,-0.030543261909900768,0.002181661564992912,-8.81,4.51,0.16,23.375,-18.875,-33.75,1746516946.5054162
1963,-0.009817477042468103,-0.009817477042468103,0.022907446432425576,-8.72,4.44,0.15,21.5625,-18.5,-33.0,1746516946.5253077
1964,0.014180800172453928,0.008726646259971648,0.038179077387375956,-8.77,4.48,0.11,21.5625,-18.5,-33.0,1746516946.5452523
1965,0.02181661564992912,0.018544123302439753,0.07526732399225546,-8.75,4.46,0.19,21.5625,-18.5,-30.5,1746516946.5652711
1966,0.020725784867432664,0.02399827721492203,0.09817477042468103,-8.68,4.39,0.23,21.5625,-18.5,-30.5,1746516946.5852556
1967,0.01090830782496456,0.004363323129985824,0.09926560120717749,-8.63,4.38,0.24,21.5625,-18.5,-30.5,1746516946.60531
1968,0.004363323129985824,-0.019634954084936207,0.08508480103472356,-8.66,4.2700000000000005,0.18,23.0625,-18.875,-32.1875,1746516946.625797
1969,-0.007635815477475192,-0.015271630954950384,0.08399397025222712,-8.63,4.29,0.17,23.0625,-18.875,-32.1875,1746516946.6455705
1970,-0.017453292519943295,-0.018544123302439753,0.09272061651219876,-8.58,4.34,0.23,23.0625,-17.75,-32.5625,1746516946.6656308
1971,-0.0272707695624114,-0.009817477042468103,0.08944812416470939,-8.4,4.38,0.4,23.0625,-17.75,-32.5625,1746516946.6857026
1972,-0.032724923474893676,-0.002181661564992912,0.05781403147231216,-8.34,4.37,0.47000000000000003,23.0625,-17.75,-32.5625,1746516946.7056963
1973,-0.04363323129985824,0.00545415391248228,0.002181661564992912,-8.23,4.33,0.51,22.25,-17.75,-33.0,1746516946.7260437
1974,-0.032724923474893676,-0.01090830782496456,-0.06435901616729091,-8.44,4.36,0.51,22.25,-17.75,-33.0,1746516946.7465334
1975,0.001090830782496456,0.008726646259971648,-0.03599741582238305,-8.6,4.37,0.41000000000000003,21.25,-19.5625,-33.375,1746516946.7661343
1976,0.04581489286485115,0.03490658503988659,0.022907446432425576,-8.540000000000001,4.43,0.34,21.25,-19.5625,-33.375,1746516946.7872403
1977,0.07744898555724837,0.04581489286485115,0.030543261909900768,-8.38,4.47,0.41000000000000003,21.25,-19.5625,-33.375,1746516946.806107
1978,0.07744898555724837,0.020725784867432664,-0.028361600344907856,-8.26,4.5,0.47000000000000003,20.875,-18.5,-31.75,1746516946.8265247
1979,0.05672320068981571,-0.01090830782496456,-0.15162547876700738,-8.61,4.53,0.47000000000000003,20.875,-18.5,-31.75,1746516946.8477962
1980,0.050178215994836975,0.05126904677733343,-0.09926560120717749,-8.94,4.63,0.34,21.875,-18.875,-30.5,1746516946.8665097
1981,0.08290313946973066,0.10471975511965978,-0.014180800172453928,-8.84,4.59,0.21,21.875,-18.875,-30.5,1746516946.8890836
1982,0.10144726277217041,0.08617563181722002,0.00545415391248228,-8.65,4.5600000000000005,0.26,21.875,-18.875,-30.5,1746516946.9065137
1983,0.08944812416470939,0.019634954084936207,0.008726646259971648,-8.5,4.55,0.26,23.75,-19.5625,-33.375,1746516946.9282467
1984,0.04581489286485115,-0.0719948316447661,-0.04908738521234052,-8.47,4.61,0.32,23.75,-19.5625,-33.375,1746516946.9501212
1985,-0.002181661564992912,-0.1090830782496456,-0.06763150851478027,-8.68,4.73,0.35000000000000003,23.0625,-17.75,-30.5,1746516946.9669132
1986,-0.00545415391248228,-0.05999569303730508,-0.025089107997418487,-8.84,4.75,0.26,23.0625,-17.75,-30.5,1746516946.9901993
1987,0.02945243112740431,-0.009817477042468103,0.006544984694978736,-8.68,4.72,0.25,23.0625,-17.75,-30.5,1746516947.0069215
1988,0.05999569303730508,-0.013089969389957472,0.002181661564992912,-8.52,4.67,0.2,23.0625,-18.875,-31.25,1746516947.0291789
1989,0.08944812416470939,-0.05890486225480862,-0.025089107997418487,-8.46,4.71,0.1,23.0625,-18.875,-31.25,1746516947.0502052
1990,0.10035643198967395,-0.09599310885968812,-0.015271630954950384,-8.57,4.82,0.11,22.25,-18.5,-32.5625,1746516947.0676477
1991,0.09053895494720585,-0.07744898555724837,0.03599741582238305,-8.61,4.89,0.0,22.25,-18.5,-32.5625,1746516947.0902584
1992,0.06217735460229799,-0.04908738521234052,0.05235987755982989,-8.4,4.87,0.02,22.25,-18.5,-32.5625,1746516947.1074915
1993,0.026179938779914945,-0.05890486225480862,-0.006544984694978736,-8.27,4.8100000000000005,0.11,21.25,-20.0,-30.0625,1746516947.1302776
1994,-0.018544123302439753,-0.06981317007977318,-0.07635815477475191,-8.46,4.82,0.11,21.25,-20.0,-30.0625,1746516947.1508613
1995,-0.02181661564992912,-0.02945243112740431,-0.09381144729469522,-8.6,4.84,0.14,22.6875,-19.1875,-31.75,1746516947.1678517
1996,0.015271630954950384,0.05126904677733343,-0.06872233929727672,-8.790000000000001,4.91,0.19,22.6875,-19.1875,-31.75,1746516947.1908123
1997,0.055632369907319255,0.14835298641951802,-0.017453292519943295,-8.77,4.94,0.29,22.6875,-19.1875,-31.75,1746516947.2078776
1998,0.0545415391248228,0.17671458676442586,-0.008726646259971648,-8.71,4.78,0.38,23.0625,-19.1875,-31.75,1746516947.2306414
1999,0.0,0.12544553998709243,-0.04145156973486533,-8.73,4.68,0.36,23.0625,-19.1875,-31.75,1746516947.2510877
2000,-0.06544984694978735,0.018544123302439753,-0.05999569303730508,-8.77,4.55,0.24,23.75,-18.1875,-32.1875,1746516947.2684407
2001,-0.10799224746714914,-0.08399397025222712,-0.0719948316447661,-8.89,4.54,0.18,23.75,-18.1875,-32.1875,1746516947.2909799
2002,-0.10035643198967395,-0.11017390903214205,-0.04145156973486533,-9.1,4.61,0.19,23.75,-18.1875,-32.1875,1746516947.3083043
2003,-0.04581489286485115,-0.055632369907319255,0.05781403147231216,-8.94,4.7,0.31,21.875,-19.1875,-31.75,1746516947.3311355
2004,0.013089969389957472,0.014180800172453928,0.1265363707695889,-8.73,4.69,0.36,21.875,-19.1875,-31.75,1746516947.351143
2005,0.02181661564992912,0.03490658503988659,0.11126473981463851,-8.48,4.57,0.39,21.875,-20.375,-32.5625,1746516947.3691833
2006,-0.028361600344907856,0.0,0.03599741582238305,-8.700000000000001,4.45,0.33,21.875,-20.375,-32.5625,1746516947.3909752
2007,-0.09599310885968812,-0.039269908169872414,-0.017453292519943295,-8.84,4.44,0.27,21.875,-20.375,-32.5625,1746516947.4089282
2008,-0.12326387842209953,-0.02945243112740431,0.002181661564992912,-8.86,4.45,0.26,21.25,-18.875,-30.5,1746516947.4309654
2009,-0.08072147790473774,-0.003272492347489368,0.06326818538479445,-8.73,4.38,0.27,21.25,-18.875,-30.5,1746516947.4513507
2010,-0.03381575425739013,-0.003272492347489368,0.10362892433716332,-8.57,4.43,0.43,23.0625,-19.5625,-31.75,1746516947.4694266
2011,0.0,-0.038179077387375956,0.04363323129985824,-8.61,4.37,0.5,23.0625,-19.5625,-31.75,1746516947.4911032
2012,0.0,-0.05999569303730508,0.02945243112740431,-8.66,4.39,0.45,23.75,-19.1875,-33.375,1746516947.5092704
2013,0.007635815477475192,-0.05999569303730508,0.04581489286485115,-8.5,4.46,0.45,23.75,-19.1875,-33.375,1746516947.5314808
2014,0.030543261909900768,-0.04036073895236887,0.05999569303730508,-8.33,4.5,0.54,23.75,-19.1875,-33.375,1746516947.551221
2015,0.05999569303730508,-0.039269908169872414,0.039269908169872414,-8.28,4.5200000000000005,0.53,22.25,-18.1875,-30.875,1746516947.5698035
2016,0.07744898555724837,-0.04036073895236887,-0.018544123302439753,-8.63,4.54,0.4,22.25,-18.1875,-30.875,1746516947.5910928
2017,0.07308566242726255,-0.001090830782496456,0.001090830782496456,-8.69,4.59,0.34,21.25,-20.0,-31.75,1746516947.6097217
2018,0.06326818538479445,0.0545415391248228,0.06763150851478027,-8.45,4.55,0.24,21.25,-20.0,-31.75,1746516947.6312537
2019,0.04581489286485115,0.013089969389957472,0.04145156973486533,-8.4,4.5,0.1,21.25,-20.0,-31.75,1746516947.651391
2020,0.050178215994836975,-0.05999569303730508,0.0272707695624114,-8.48,4.5,0.1,20.875,-20.375,-32.5625,1746516947.6703284
2021,0.06981317007977318,-0.09926560120717749,0.020725784867432664,-8.5,4.6000000000000005,0.07,20.875,-20.375,-32.5625,1746516947.691142
2022,0.10144726277217041,-0.07853981633974483,0.044724062082354694,-8.47,4.61,0.05,22.25,-20.0,-32.1875,1746516947.710141
2023,0.11017390903214205,-0.028361600344907856,0.07635815477475191,-8.26,4.65,0.0,22.25,-20.0,-32.1875,1746516947.7312741
2024,0.09381144729469522,0.015271630954950384,0.05781403147231216,-8.19,4.68,0.0,22.25,-20.0,-32.1875,1746516947.7515748
2025,0.05890486225480862,0.03490658503988659,0.017453292519943295,-8.22,4.7,-0.05,23.0625,-20.6875,-32.5625,1746516947.7704568
2026,0.028361600344907856,0.04145156973486533,-0.0272707695624114,-8.32,4.72,-0.08,23.0625,-20.6875,-32.5625,1746516947.7913136
2027,-0.008726646259971648,0.05672320068981571,-0.05126904677733343,-8.42,4.72,-0.06,22.6875,-19.1875,-33.75,1746516947.810507
2028,-0.0545415391248228,0.09817477042468103,-0.09599310885968812,-8.46,4.71,-0.02,22.6875,-19.1875,-33.75,1746516947.8313775
2029,-0.08508480103472356,0.08617563181722002,-0.14726215563702155,-8.58,4.74,0.11,22.6875,-19.1875,-33.75,1746516947.851534
2030,-0.09272061651219876,0.08072147790473774,-0.16035212502697901,-8.91,4.8100000000000005,0.32,21.25,-18.875,-31.75,1746516947.8709626
2031,-0.07308566242726255,0.09926560120717749,-0.07744898555724837,-8.94,4.86,0.43,21.25,-18.875,-31.75,1746516947.8913622
2032,-0.05235987755982989,0.10471975511965978,-0.038179077387375956,-8.81,4.83,0.52,20.875,-20.375,-33.375,1746516947.9110327
2033,-0.009817477042468103,0.06326818538479445,0.03381575425739013,-8.5,4.75,0.5700000000000001,20.875,-20.375,-33.375,1746516947.9314477
2034,-0.02181661564992912,-0.02181661564992912,-0.04036073895236887,-8.59,4.75,0.62,20.875,-20.375,-33.375,1746516947.951582
2035,-0.031634092692397225,-0.055632369907319255,-0.06326818538479445,-8.83,4.76,0.61,22.6875,-20.375,-32.875,1746516947.9715023
2036,-0.02945243112740431,-0.07635815477475191,-0.07308566242726255,-8.96,4.73,0.58,22.6875,-20.375,-32.875,1746516947.9914865
2037,0.020725784867432664,-0.039269908169872414,-0.037088246604879506,-8.76,4.53,0.54,23.0625,-19.1875,-31.1875,1746516948.0112698
2038,0.06326818538479445,-0.04363323129985824,-0.06544984694978735,-8.71,4.63,0.54,23.0625,-19.1875,-31.1875,1746516948.0314422
2039,0.09053895494720585,-0.05345070834232634,-0.09926560120717749,-8.82,4.61,0.46,23.0625,-19.1875,-31.1875,1746516948.0515165
2040,0.08508480103472356,-0.04908738521234052,-0.07963064712224129,-8.82,4.67,0.42,23.75,-20.0,-33.0,1746516948.0721078
2041,0.0545415391248228,-0.05890486225480862,-0.0719948316447661,-8.8,4.59,0.3,23.75,-20.0,-33.0,1746516948.0918295
2042,-0.004363323129985824,-0.08072147790473774,-0.038179077387375956,-8.65,4.45,-0.04,23.0625,-18.875,-33.375,1746516948.1116173
2043,-0.09926560120717749,-0.1810779098944117,-0.03599741582238305,-8.43,4.37,-0.13,23.0625,-18.875,-33.375,1746516948.1319437
2044,-0.21925698728178766,-0.3490658503988659,-0.11017390903214205,-8.24,4.25,-0.3,23.0625,-18.875,-33.375,1746516948.1522036
2045,-0.32070425005395803,-0.5050546522958591,-0.19198621771937624,-8.34,4.23,-0.45,20.0625,-18.1875,-32.0625,1746516948.1730783
2046,-0.3959715740462135,-0.5497787143782138,-0.18653206380689397,-8.56,4.36,-0.49,20.0625,-18.1875,-32.0625,1746516948.1932585
2047,-0.4603305902135044,-0.4559672670835186,-0.061086523819801536,-8.4,4.5600000000000005,-0.1,21.25,-20.6875,-33.0,1746516948.2120147
2048,-0.5126904677733343,-0.3567016658763411,-0.055632369907319255,-8.24,4.54,0.19,21.25,-20.6875,-33.0,1746516948.233187
2049,-0.5410520681182421,-0.2694352032766246,-0.1636246173744684,-8.14,4.51,0.81,21.25,-20.6875,-33.0,1746516948.2523913
2050,-0.5345070834232635,-0.17562375598192942,-0.25743606466916363,-8.11,4.42,1.1,22.6875,-19.5,-32.5625,1746516948.2743733
2051,-0.45487643630102215,-0.08399397025222712,-0.3665191429188092,-8.71,4.42,1.02,22.6875,-19.5,-32.5625,1746516948.2942774
2052,-0.32615840396644036,0.04908738521234052,-0.2977968036215325,-9.13,4.33,0.9400000000000001,21.5625,-15.875,-35.375,1746516948.3124053
2053,-0.20943951023931956,0.16689710972195776,-0.1341721862470641,-9.06,4.3,1.1400000000000001,21.5625,-15.875,-35.375,1746516948.3344378
2054,-0.1341721862470641,0.16144295580947549,-0.05126904677733343,-8.86,4.16,1.2,21.5625,-15.875,-35.375,1746516948.3526924
2055,-0.12217304763960307,0.08508480103472356,-0.050178215994836975,-8.82,4.15,1.18,23.75,-16.375,-35.0,1746516948.374197
2056,-0.13308135546456762,0.04581489286485115,-0.09272061651219876,-8.98,4.28,1.33,23.75,-16.375,-35.0,1746516948.394295
2057,-0.12217304763960307,0.07635815477475191,-0.06763150851478027,-8.88,4.24,1.3,21.25,-14.875,-35.0,1746516948.4127946
2058,-0.09053895494720585,0.11344640137963143,-0.05235987755982989,-8.73,4.1,1.23,21.25,-14.875,-35.0,1746516948.4343739
2059,-0.07744898555724837,0.10362892433716332,-0.06654067773228381,-8.66,4.01,1.16,21.25,-14.875,-35.0,1746516948.453074
2060,-0.09490227807719166,0.06763150851478027,-0.10690141668465268,-8.72,4.0,1.23,20.875,-14.875,-33.6875,1746516948.4746108
2061,-0.13199052468207118,0.039269908169872414,-0.16471544815696484,-8.94,4.12,1.34,20.875,-14.875,-33.6875,1746516948.496569
2062,-0.14944381720201447,0.06326818538479445,-0.1308996938995747,-9.14,4.16,1.42,21.875,-16.0,-33.25,1746516948.5131474
2063,-0.11999138607461016,0.10581058590215622,-0.07963064712224129,-8.99,4.03,1.4000000000000001,21.875,-16.0,-33.25,1746516948.5361426
2064,-0.05999569303730508,0.09926560120717749,-0.12326387842209953,-9.02,3.96,1.34,21.875,-16.0,-33.25,1746516948.5534294
2065,0.0,0.061086523819801536,-0.13962634015954636,-9.08,3.85,1.24,23.375,-14.75,-35.0,1746516948.5755796
2066,0.03381575425739013,0.014180800172453928,-0.1308996938995747,-9.200000000000001,3.86,1.23,23.375,-14.75,-35.0,1746516948.596341
2067,0.05235987755982989,0.0,-0.06544984694978735,-9.19,3.9,1.27,23.375,-13.0,-35.375,1746516948.6135108
2068,0.07526732399225546,-0.025089107997418487,-0.014180800172453928,-9.13,3.88,1.12,23.375,-13.0,-35.375,1746516948.6361587
2069,0.10144726277217041,-0.06872233929727672,0.019634954084936207,-8.99,3.8200000000000003,0.9,23.375,-13.0,-35.375,1746516948.6538212
2070,0.11017390903214205,-0.12435470920459599,-0.01090830782496456,-8.950000000000001,3.92,0.8200000000000001,23.375,-13.75,-34.5,1746516948.6772215
2071,0.08944812416470939,-0.13853550937704992,-0.019634954084936207,-8.94,3.96,0.78,23.375,-13.75,-34.5,1746516948.6968348
2072,0.04036073895236887,-0.11017390903214205,-0.013089969389957472,-8.98,4.14,0.79,21.5625,-14.1875,-35.0625,1746516948.7140558
2073,-0.015271630954950384,-0.05345070834232634,0.04145156973486533,-8.870000000000001,4.12,0.7000000000000001,21.5625,-14.1875,-35.0625,1746516948.7366896
2074,-0.09381144729469522,-0.044724062082354694,0.009817477042468103,-8.66,4.1,0.68,21.5625,-14.1875,-35.0625,1746516948.7541876
2075,-0.16798794050445423,-0.05345070834232634,-0.0545415391248228,-8.69,4.07,0.78,20.5,-14.1875,-33.375,1746516948.7772014
2076,-0.2203478180642841,-0.05345070834232634,-0.12544553998709243,-8.72,4.0,0.88,20.5,-14.1875,-33.375,1746516948.7971148
2077,-0.2378011105842274,-0.04581489286485115,-0.1439896632895322,-8.9,3.94,0.9,21.5625,-15.1875,-32.5625,1746516948.8143053
2078,-0.18762289458939044,0.0,-0.05126904677733343,-8.950000000000001,3.8000000000000003,0.77,21.5625,-15.1875,-32.5625,1746516948.8369915
2079,-0.09381144729469522,0.008726646259971648,0.014180800172453928,-8.75,3.7800000000000002,0.77,21.5625,-15.1875,-32.5625,1746516948.8545816
2080,-0.026179938779914945,-0.02181661564992912,0.04581489286485115,-8.64,3.83,0.74,22.6875,-12.875,-35.0625,1746516948.8773143
2081,-0.014180800172453928,-0.05235987755982989,0.04799655442984406,-8.44,3.87,0.86,22.6875,-12.875,-35.0625,1746516948.8972201
2082,-0.05345070834232634,-0.0818123086872342,-0.008726646259971648,-8.32,3.95,0.93,22.6875,-12.25,-34.25,1746516948.9146752
2083,-0.10471975511965978,-0.1090830782496456,-0.05126904677733343,-8.48,3.93,0.81,22.6875,-12.25,-34.25,1746516948.937143
2084,-0.16798794050445423,-0.08508480103472356,-0.04363323129985824,-8.48,3.99,0.84,22.6875,-12.25,-34.25,1746516948.9552252
2085,-0.23561944901923448,-0.014180800172453928,-0.039269908169872414,-8.34,4.16,1.02,21.875,-13.0,-33.75,1746516948.976448
2086,-0.3294308963139297,0.038179077387375956,-0.09708393964218458,-8.42,4.16,1.24,21.875,-13.0,-33.75,1746516948.9972608
2087,-0.4374231437810788,0.007635815477475192,-0.1505346479845109,-8.55,4.09,1.32,21.25,-13.25,-33.75,1746516949.0152774
2088,-0.47669305195095124,-0.03599741582238305,-0.20289452554434081,-8.72,4.0,1.35,21.25,-13.25,-33.75,1746516949.037234
2089,-0.4559672670835186,-0.0916297857297023,-0.17998707911191522,-8.99,3.85,1.16,21.25,-13.25,-33.75,1746516949.055527
2090,-0.5225079448158024,-0.02181661564992912,-0.019634954084936207,-8.89,4.14,1.34,21.5625,-12.875,-34.6875,1746516949.0774062
2091,-0.6086835766330224,0.0,0.10799224746714914,-8.950000000000001,3.8000000000000003,1.62,21.5625,-12.875,-34.6875,1746516949.097401
2092,-0.7046766854927106,0.03381575425739013,0.02399827721492203,-8.97,3.77,1.72,22.6875,-10.375,-35.875,1746516949.1156948
2093,-0.6981317007977318,0.15271630954950383,-0.07526732399225546,-8.74,3.48,1.76,22.6875,-10.375,-35.875,1746516949.137277
2094,-0.5879577917655898,0.23671027980173096,-0.19198621771937624,-8.84,3.47,1.6500000000000001,23.375,-10.0625,-36.75,1746516949.155908
2095,-0.433059820651093,0.33052172709642613,-0.2454369260617026,-9.53,3.45,1.18,23.375,-10.0625,-36.75,1746516949.177501
2096,-0.30870511144649704,0.495237175253391,-0.11671889372712078,-9.4,3.67,1.09,23.375,-10.0625,-36.75,1746516949.1974504
2097,-0.2181661564992912,0.5945027764605685,-0.037088246604879506,-9.19,3.67,1.12,23.375,-9.0,-38.375,1746516949.2160163
2098,-0.19853120241435498,0.5345070834232635,-0.09490227807719166,-8.88,3.48,1.3900000000000001,23.375,-9.0,-38.375,1746516949.2376902
2099,-0.2301652951067522,0.30543261909900765,-0.2552544031041707,-9.53,3.35,1.26,22.25,-7.875,-35.0625,1746516949.2563949
2100,-0.3076142806640006,0.1505346479845109,-0.2378011105842274,-9.56,3.52,1.37,22.25,-7.875,-35.0625,1746516949.277261
2101,-0.31634092692397225,0.10253809355466686,-0.05672320068981571,-9.36,3.58,1.51,22.25,-7.875,-35.0625,1746516949.2975335
2102,-0.25743606466916363,0.11017390903214205,0.05235987755982989,-8.97,3.5500000000000003,1.55,24.0625,-7.1875,-35.5,1746516949.316509
2103,-0.09708393964218458,0.20289452554434081,0.055632369907319255,-8.9,3.5,1.42,24.0625,-7.1875,-35.5,1746516949.3374772
2104,-0.05345070834232634,0.23889194136672387,0.04908738521234052,-8.82,3.5,1.3,26.25,-7.5,-35.0625,1746516949.3566802
2105,-0.009817477042468103,0.2945243112740431,-0.05235987755982989,-8.97,3.62,1.22,26.25,-7.5,-35.0625,1746516949.377255
2106,-0.030543261909900768,0.30543261909900765,-0.13526301702956053,-9.27,3.65,1.23,26.25,-7.5,-35.0625,1746516949.3976824
2107,-0.0545415391248228,0.33052172709642613,-0.13744467859455345,-9.25,3.65,1.23,25.5625,-6.875,-33.75,1746516949.416878
2108,-0.10144726277217041,0.36760997370130566,-0.18980455615438332,-9.44,3.5700000000000003,1.22,25.5625,-6.875,-33.75,1746516949.437573
2109,-0.09272061651219876,0.37306412761378793,-0.12544553998709243,-9.78,3.42,0.78,26.25,-6.875,-35.875,1746516949.4571102
2110,-0.07963064712224129,0.3687008044838021,0.05235987755982989,-9.74,3.33,0.58,26.25,-6.875,-35.875,1746516949.4777682
2111,-0.0818123086872342,0.31525009614147576,0.210530341021816,-9.5,3.17,0.48,26.25,-6.875,-35.875,1746516949.4975488
2112,-0.09926560120717749,0.20398535632683726,0.20616701789183017,-9.370000000000001,3.14,0.53,25.5625,-7.1875,-34.25,1746516949.5173929
2113,-0.12326387842209953,0.1090830782496456,0.12544553998709243,-9.26,3.09,0.61,25.5625,-7.1875,-34.25,1746516949.537479
2114,-0.11453723216212788,0.0818123086872342,0.020725784867432664,-9.39,3.16,0.7000000000000001,26.25,-6.0625,-34.25,1746516949.5575044
2115,-0.06763150851478027,0.14289883250703572,0.038179077387375956,-9.53,3.2600000000000002,0.68,26.25,-6.0625,-34.25,1746516949.5782228
2116,-0.001090830782496456,0.2519819107566813,0.210530341021816,-9.26,3.33,0.65,26.25,-6.0625,-34.25,1746516949.5978146
2117,0.037088246604879506,0.29561514205653955,0.30543261909900765,-8.94,3.2600000000000002,0.6,27.75,-6.875,-33.75,1746516949.6177447
2118,0.0272707695624114,0.2454369260617026,0.2552544031041707,-8.73,3.22,0.44,27.75,-6.875,-33.75,1746516949.6391208
2119,-0.037088246604879506,0.16144295580947549,0.14508049407202864,-8.64,3.27,0.38,28.1875,-7.5,-34.6875,1746516949.6579418
2120,-0.11017390903214205,0.05781403147231216,0.009817477042468103,-8.76,3.34,0.42,28.1875,-7.5,-34.6875,1746516949.681753
2121,-0.15489797111449674,-0.025089107997418487,-0.08726646259971647,-9.09,3.39,0.47000000000000003,28.1875,-7.5,-34.6875,1746516949.699107
2122,-0.15707963267948966,-0.05890486225480862,-0.0545415391248228,-9.08,3.45,0.46,28.875,-6.875,-34.25,1746516949.7207282
2123,-0.13308135546456762,-0.13308135546456762,-0.011999138607461015,-9.4,3.37,0.5700000000000001,28.875,-6.875,-34.25,1746516949.7422955
2124,-0.13962634015954636,-0.16471544815696484,0.11126473981463851,-9.040000000000001,3.36,0.7000000000000001,27.375,-7.1875,-34.25,1746516949.7595148
2125,-0.136353847812057,-0.2617993877991494,0.06217735460229799,-8.71,3.2,0.74,27.375,-7.1875,-34.25,1746516949.7827032
2126,-0.10471975511965978,-0.2912518189265537,-0.06435901616729091,-8.78,3.37,0.79,27.375,-7.1875,-34.25,1746516949.7994761
2127,-0.018544123302439753,-0.14289883250703572,-0.1189005552921137,-9.22,3.63,0.85,27.75,-7.1875,-34.25,1746516949.8223653
2128,0.09490227807719166,0.12980886311707826,-0.05345070834232634,-9.1,3.67,0.71,27.75,-7.1875,-34.25,1746516949.8432655
2129,0.17671458676442586,0.32615840396644036,-0.055632369907319255,-8.91,3.6,0.6,27.375,-6.0625,-34.25,1746516949.8598654
2130,0.17562375598192942,0.37306412761378793,-0.14835298641951802,-9.040000000000001,3.5500000000000003,0.6,27.375,-6.0625,-34.25,1746516949.8826628
2131,0.09926560120717749,0.3108867730114899,-0.2476185876266955,-9.23,3.44,0.56,27.375,-6.0625,-34.25,1746516949.8999166
2132,0.001090830782496456,0.18435040224190105,-0.31634092692397225,-9.59,3.4,0.43,28.5625,-6.875,-35.0625,1746516949.9229789
2133,-0.02945243112740431,0.06763150851478027,-0.3119776037939864,-9.84,3.48,0.31,28.5625,-6.875,-35.0625,1746516949.9434583
2134,0.039269908169872414,0.022907446432425576,-0.15271630954950383,-9.85,3.6,0.32,29.1875,-6.5,-35.5,1746516949.9607093
2135,0.16798794050445423,0.007635815477475192,0.022907446432425576,-9.71,3.67,0.32,29.1875,-6.5,-35.5,1746516949.983458
2136,0.2748893571891069,0.018544123302439753,0.15271630954950383,-9.27,3.66,0.18,29.1875,-6.5,-35.5,1746516950.000295
2137,0.30325095753401476,0.04799655442984406,0.15817046346198613,-9.02,3.69,0.11,27.6875,-5.75,-33.75,1746516950.0232139
2138,0.2203478180642841,0.05781403147231216,0.08617563181722002,-8.86,3.7,0.09,27.6875,-5.75,-33.75,1746516950.0437248
2139,0.07963064712224129,0.003272492347489368,-0.05345070834232634,-9.01,3.73,0.07,27.6875,-6.875,-33.75,1746516950.0606596
2140,-0.037088246604879506,-0.037088246604879506,-0.11235557059713497,-9.16,3.71,0.1,27.6875,-6.875,-33.75,1746516950.0835142
2141,-0.07744898555724837,-0.04908738521234052,-0.10362892433716332,-9.36,3.71,0.24,27.6875,-6.875,-33.75,1746516950.1006517
2142,-0.08290313946973066,-0.0272707695624114,-0.04799655442984406,-9.23,3.67,0.36,28.5,-6.875,-33.75,1746516950.1234813
2143,-0.09817477042468103,-0.07090400086226964,-0.06217735460229799,-9.0,3.64,0.54,28.5,-6.875,-33.75,1746516950.1436803
2144,-0.11344640137963143,-0.1505346479845109,-0.14835298641951802,-9.21,3.66,0.62,28.5,-6.5,-33.375,1746516950.1610625
2145,-0.11126473981463851,-0.1832595714594046,-0.15489797111449674,-9.18,3.68,0.59,28.5,-6.5,-33.375,1746516950.1836205
2146,-0.09708393964218458,-0.24107360293171676,-0.1439896632895322,-9.15,3.48,0.61,28.5,-6.5,-33.375,1746516950.2010055
2147,-0.12435470920459599,-0.2748893571891069,-0.07963064712224129,-9.18,3.42,0.51,28.75,-6.5,-35.5,1746516950.2230563
2148,-0.1832595714594046,-0.2476185876266955,0.001090830782496456,-8.63,3.5100000000000002,0.68,28.75,-6.5,-35.5,1746516950.2437901
2149,-0.24434609527920614,-0.21707532571679475,-0.06763150851478027,-8.58,3.54,0.77,26.1875,-6.5,-35.5,1746516950.261652
2150,-0.29888763440402893,-0.15926129424448257,-0.1712604328519436,-8.9,3.42,0.63,26.1875,-6.5,-35.5,1746516950.2836227
2151,-0.32506757318394386,-0.06763150851478027,-0.19853120241435498,-9.040000000000001,3.38,0.59,26.1875,-6.5,-35.5,1746516950.3016217
2152,-0.35997415822383044,0.003272492347489368,-0.2007128639793479,-8.81,3.5500000000000003,0.58,27.0,-5.375,-34.25,1746516950.3229632
2153,-0.37960911230876665,0.016362461737446838,-0.2901609881440573,-9.48,3.49,0.63,27.0,-5.375,-34.25,1746516950.343808
2154,-0.39269908169872414,0.11453723216212788,-0.25089107997418486,-9.58,3.4,0.67,27.0,-5.375,-34.25,1746516950.3621616
2155,-0.37960911230876665,0.21162117180431245,-0.14944381720201447,-9.63,3.08,0.7000000000000001,27.0,-5.375,-34.25,1746516950.3835943
2156,-0.37088246604879505,0.2399827721492203,-0.0545415391248228,-9.58,2.97,0.7000000000000001,28.0625,-4.5625,-35.0625,1746516950.4020083
2157,-0.36979163526629855,0.20943951023931956,-0.00545415391248228,-9.25,2.77,0.75,28.0625,-4.5625,-35.0625,1746516950.4235775
2158,-0.3687008044838021,0.13526301702956053,-0.044724062082354694,-9.43,2.7800000000000002,0.77,28.0625,-4.5625,-35.0625,1746516950.4438896
2159,-0.3425208657038872,0.09381144729469522,-0.07853981633974483,-9.49,2.86,0.74,28.75,-1.6875,-33.75,1746516950.4626143
2160,-0.3327033886614191,0.10035643198967395,-0.007635815477475192,-9.59,2.91,0.56,28.75,-1.6875,-33.75,1746516950.483771
2161,-0.35124751196385884,0.1090830782496456,0.21162117180431245,-9.27,2.87,0.56,27.6875,-3.1875,-35.0625,1746516950.5031726
2162,-0.34470252726888007,0.04036073895236887,0.2007128639793479,-8.540000000000001,2.79,0.8200000000000001,27.6875,-3.1875,-35.0625,1746516950.523781
2163,-0.3108867730114899,-0.03381575425739013,0.0,-8.85,2.82,0.91,27.6875,-3.1875,-35.0625,1746516950.5439997
2164,-0.25634523388666713,0.007635815477475192,-0.15162547876700738,-9.23,2.75,0.85,27.6875,-2.375,-34.6875,1746516950.5633688
2165,-0.18653206380689397,0.09272061651219876,-0.13308135546456762,-9.51,2.7800000000000002,0.8,27.6875,-2.375,-34.6875,1746516950.5838065
2166,-0.14835298641951802,0.1505346479845109,-0.017453292519943295,-9.35,2.8000000000000003,0.89,28.75,-1.25,-33.0,1746516950.6029456
2167,-0.12326387842209953,0.1636246173744684,0.08399397025222712,-9.13,2.84,0.97,28.75,-1.25,-33.0,1746516950.6238208
2168,-0.09926560120717749,0.1461713248545251,0.06326818538479445,-9.09,2.83,1.03,28.75,-1.25,-33.0,1746516950.6443634
2169,-0.07308566242726255,0.1265363707695889,-0.055632369907319255,-9.370000000000001,2.72,0.77,28.75,-1.6875,-35.0625,1746516950.663601
2170,-0.10253809355466686,0.14289883250703572,-0.12762720155208535,-9.48,2.74,0.79,28.75,-1.6875,-35.0625,1746516950.6837873
2171,-0.1090830782496456,0.1538071403320003,-0.12435470920459599,-9.61,2.73,0.79,29.5,0.1875,-35.875,1746516950.703291
2172,-0.04145156973486533,0.19744037163185854,-0.02945243112740431,-9.51,2.69,0.76,29.5,0.1875,-35.875,1746516950.7237532
2173,0.05235987755982989,0.17235126363444003,0.030543261909900768,-9.46,2.68,0.71,29.5,0.1875,-35.875,1746516950.744179
2174,0.13962634015954636,0.06763150851478027,0.10144726277217041,-9.16,2.61,0.7000000000000001,28.0625,0.6875,-33.375,1746516950.7637765
2175,0.18544123302439752,-0.0719948316447661,0.08617563181722002,-9.19,2.61,0.63,28.0625,0.6875,-33.375,1746516950.784257
2176,0.20180369476184434,-0.10799224746714914,0.11126473981463851,-9.33,2.8000000000000003,0.58,29.1875,-1.25,-35.0625,1746516950.8037336
2177,0.23671027980173096,-0.07417649320975901,0.14289883250703572,-9.06,3.0,0.61,29.1875,-1.25,-35.0625,1746516950.823905
2178,0.29670597283903605,-0.0272707695624114,0.08508480103472356,-9.03,3.15,0.71,29.1875,-1.25,-35.0625,1746516950.8441775
2179,0.34470252726888007,0.007635815477475192,-0.011999138607461015,-9.18,3.2,0.68,28.75,-1.0625,-34.25,1746516950.86384
2180,0.3687008044838021,0.06544984694978735,-0.061086523819801536,-9.700000000000001,3.21,0.63,28.75,-1.0625,-34.25,1746516950.8844907
2181,0.37742745074377376,0.12544553998709243,0.015271630954950384,-9.67,3.29,0.46,28.5,-1.375,-33.375,1746516950.9039042
2182,0.3763366199612773,0.12217304763960307,0.06654067773228381,-9.47,3.3000000000000003,0.35000000000000003,28.5,-1.375,-33.375,1746516950.923979
2183,0.33161255787892263,0.038179077387375956,0.030543261909900768,-9.13,3.47,0.34,28.5,-1.375,-33.375,1746516950.944202
2184,0.24652775684419906,-0.06544984694978735,-0.07090400086226964,-9.22,3.64,0.39,30.25,-2.5,-33.375,1746516950.9651856
2185,0.13526301702956053,-0.07308566242726255,-0.05345070834232634,-9.620000000000001,3.65,0.28,30.25,-2.5,-33.375,1746516950.9848685
2186,0.018544123302439753,-0.018544123302439753,0.028361600344907856,-9.51,3.47,0.17,28.0625,-2.5,-33.375,1746516951.004254
2187,-0.08835729338221293,-0.05126904677733343,0.0545415391248228,-9.33,3.14,-0.03,28.0625,-2.5,-33.375,1746516951.024298
2188,-0.17562375598192942,-0.15707963267948966,0.015271630954950384,-9.14,3.04,0.03,28.0625,-2.5,-33.375,1746516951.0445855
2189,-0.20725784867432664,-0.2596177262341565,-0.0719948316447661,-9.19,3.24,0.46,28.5,-3.25,-32.5625,1746516951.066301
2190,-0.1810779098944117,-0.23561944901923448,-0.10253809355466686,-9.42,3.31,0.53,28.5,-3.25,-32.5625,1746516951.0860882
2191,-0.1461713248545251,-0.11017390903214205,-0.028361600344907856,-9.52,3.19,0.44,28.75,-4.0,-34.6875,1746516951.1046047
2192,-0.136353847812057,0.008726646259971648,0.10144726277217041,-9.4,3.1,0.45,28.75,-4.0,-34.6875,1746516951.1246517
2193,-0.1439896632895322,0.044724062082354694,0.17780541754692233,-9.290000000000001,2.97,0.55,28.75,-4.0,-34.6875,1746516951.1450224
2194,-0.1832595714594046,-0.002181661564992912,0.18544123302439752,-8.9,2.79,0.59,29.5,-1.375,-33.75,1746516951.1662953
2195,-0.23561944901923448,-0.11235557059713497,0.0719948316447661,-8.67,2.69,0.65,29.5,-1.375,-33.75,1746516951.1872692
2196,-0.2814343418840856,-0.20289452554434081,-0.09599310885968812,-8.700000000000001,2.72,0.79,29.5,-1.375,-35.0625,1746516951.20497
2197,-0.29888763440402893,-0.19853120241435498,-0.20289452554434081,-9.120000000000001,2.92,0.99,29.5,-1.375,-35.0625,1746516951.2265887
2198,-0.2476185876266955,-0.10362892433716332,-0.14508049407202864,-9.19,3.0300000000000002,1.11,29.5,-1.375,-35.0625,1746516951.24525
2199,-0.10362892433716332,0.00545415391248228,-0.08072147790473774,-9.13,3.0300000000000002,1.21,28.5,-2.875,-35.0625,1746516951.2688994
2200,0.039269908169872414,0.0719948316447661,-0.061086523819801536,-8.94,2.98,1.09,28.5,-2.875,-35.0625,1746516951.2870364
2201,0.1189005552921137,0.06763150851478027,-0.1407171709420428,-9.25,3.0100000000000002,1.0,27.6875,-1.375,-34.25,1746516951.305275
2202,0.13308135546456762,0.07308566242726255,-0.10253809355466686,-9.63,3.02,0.75,27.6875,-1.375,-34.25,1746516951.327764
2203,0.1407171709420428,0.05781403147231216,0.002181661564992912,-9.61,2.98,0.58,27.6875,-1.375,-34.25,1746516951.34562
2204,0.15926129424448257,-0.009817477042468103,0.0272707695624114,-9.540000000000001,2.9,0.56,29.1875,-1.0625,-33.375,1746516951.3690722
2205,0.1189005552921137,-0.10799224746714914,0.022907446432425576,-9.200000000000001,2.91,0.63,29.1875,-1.0625,-33.375,1746516951.3889856
2206,0.031634092692397225,-0.2203478180642841,-0.018544123302439753,-9.51,3.09,0.67,29.1875,-2.1875,-33.375,1746516951.4056287
2207,-0.04908738521234052,-0.2650718801466388,0.031634092692397225,-9.450000000000001,3.15,0.7000000000000001,29.1875,-2.1875,-33.375,1746516951.4278026
2208,-0.07308566242726255,-0.25416357232167425,0.044724062082354694,-9.38,3.23,0.89,29.1875,-2.1875,-33.375,1746516951.4459999
2209,-0.030543261909900768,-0.18762289458939044,0.05890486225480862,-9.200000000000001,3.25,0.87,28.75,-1.0625,-35.5,1746516951.4683158
2210,0.050178215994836975,-0.10144726277217041,0.04254240051736178,-9.03,3.36,0.81,28.75,-1.0625,-35.5,1746516951.489406
2211,0.10581058590215622,0.01090830782496456,0.07853981633974483,-9.34,3.36,0.76,26.1875,-1.375,-33.75,1746516951.5059872
2212,0.09817477042468103,0.11999138607461016,0.14726215563702155,-9.06,3.44,0.91,26.1875,-1.375,-33.75,1746516951.5284786
2213,0.05126904677733343,0.14289883250703572,0.07635815477475191,-9.03,3.27,0.8200000000000001,26.1875,-1.375,-33.75,1746516951.5464315
2214,-0.011999138607461015,0.11235557059713497,0.008726646259971648,-9.05,3.0700000000000003,0.71,27.6875,-3.25,-35.5,1746516951.5690012
2215,-0.09599310885968812,0.06217735460229799,-0.02181661564992912,-9.11,2.91,0.58,27.6875,-3.25,-35.5,1746516951.5894969
2216,-0.18871372537188688,-0.008726646259971648,-0.03599741582238305,-9.02,2.83,0.61,28.5,-1.375,-34.6875,1746516951.606348
2217,-0.25634523388666713,-0.06435901616729091,-0.0719948316447661,-9.200000000000001,2.81,0.74,28.5,-1.375,-34.6875,1746516951.6288044
2218,-0.28034351110158917,-0.07744898555724837,-0.0916297857297023,-9.120000000000001,2.81,0.89,28.5,-1.375,-34.6875,1746516951.6467102
2219,-0.3043417883165112,-0.10471975511965978,-0.1538071403320003,-9.06,2.94,0.99,28.5,-1.75,-34.25,1746516951.6684153
2220,-0.29888763440402893,-0.10471975511965978,-0.20289452554434081,-9.1,2.97,1.07,28.5,-1.75,-34.25,1746516951.6896873
2221,-0.23234695667174513,-0.04254240051736178,-0.20616701789183017,-9.38,3.0700000000000003,1.1300000000000001,29.1875,-2.1875,-36.25,1746516951.706875
2222,-0.10799224746714914,0.07963064712224129,-0.08617563181722002,-9.540000000000001,3.0500000000000003,0.93,29.1875,-2.1875,-36.25,1746516951.7294207
2223,0.007635815477475192,0.17780541754692233,0.02945243112740431,-9.450000000000001,2.96,0.88,29.1875,-2.1875,-36.25,1746516951.7471123
2224,0.044724062082354694,0.21925698728178766,0.0719948316447661,-9.040000000000001,2.98,1.06,26.5625,-0.25,-34.25,1746516951.7697806
2225,0.001090830782496456,0.16471544815696484,-0.008726646259971648,-9.17,2.87,1.05,26.5625,-0.25,-34.25,1746516951.7895534
2226,-0.07744898555724837,0.07090400086226964,-0.12871803233458182,-9.35,2.8000000000000003,0.97,27.25,-0.6875,-33.375,1746516951.807338
2227,-0.10581058590215622,0.03490658503988659,-0.10581058590215622,-9.53,2.69,0.74,27.25,-0.6875,-33.375,1746516951.829463
2228,-0.07526732399225546,0.04799655442984406,0.004363323129985824,-9.44,2.69,0.79,27.25,-0.6875,-33.375,1746516951.8477154
2229,-0.044724062082354694,0.009817477042468103,-0.01090830782496456,-9.17,2.79,0.99,29.5,-0.5625,-34.25,1746516951.869945
2230,-0.07635815477475191,-0.032724923474893676,-0.06544984694978735,-9.28,2.88,1.08,29.5,-0.5625,-34.25,1746516951.889806
2231,-0.11562806294462433,-0.04799655442984406,-0.10581058590215622,-9.52,2.91,1.07,29.5,0.5,-34.25,1746516951.908238
2232,-0.07417649320975901,-0.006544984694978736,-0.04581489286485115,-9.55,2.79,0.98,29.5,0.5,-34.25,1746516951.9294946
2233,0.04036073895236887,0.03490658503988659,0.04581489286485115,-9.49,2.74,0.9400000000000001,29.875,-0.6875,-35.5,1746516951.948113
2234,0.12544553998709243,0.04036073895236887,0.08399397025222712,-9.14,2.85,0.78,29.875,-0.6875,-35.5,1746516951.9697998
2235,0.12217304763960307,0.006544984694978736,0.032724923474893676,-9.1,2.9,0.81,29.875,-0.6875,-35.5,1746516951.989647
2236,0.05781403147231216,-0.017453292519943295,-0.0545415391248228,-9.15,2.92,0.79,27.6875,-0.25,-35.0625,1746516952.0080912
2237,-0.006544984694978736,0.04145156973486533,-0.06217735460229799,-9.43,3.0,0.72,27.6875,-0.25,-35.0625,1746516952.029526
2238,-0.0272707695624114,0.09926560120717749,-0.011999138607461015,-9.3,2.9,0.67,28.0625,-0.25,-33.0,1746516952.0484557
2239,-0.02945243112740431,0.05781403147231216,-0.02181661564992912,-9.3,2.75,0.61,28.0625,-0.25,-33.0,1746516952.070111
2240,-0.04908738521234052,0.001090830782496456,-0.037088246604879506,-9.16,2.79,0.64,28.0625,-0.25,-33.0,1746516952.0897608
2241,-0.07853981633974483,-0.04254240051736178,-0.06981317007977318,-9.16,2.82,0.61,29.875,-0.6875,-33.0,1746516952.1084816
2242,-0.09381144729469522,-0.025089107997418487,-0.07090400086226964,-9.32,2.98,0.67,29.875,-0.6875,-33.0,1746516952.1295123
2243,-0.1090830782496456,0.055632369907319255,-0.038179077387375956,-9.13,2.94,0.75,29.1875,-0.25,-34.25,1746516952.1488605
2244,-0.13308135546456762,0.08726646259971647,-0.08617563181722002,-9.0,2.91,0.75,29.1875,-0.25,-34.25,1746516952.1701565
2245,-0.16907877128695067,0.04799655442984406,-0.19962203319685143,-9.370000000000001,2.9,0.81,29.1875,-0.25,-34.25,1746516952.1898353
2246,-0.2083486794568231,0.026179938779914945,-0.23452861823673804,-9.56,2.97,0.8300000000000001,27.6875,0.6875,-35.0625,1746516952.208764
2247,-0.18762289458939044,0.08290313946973066,-0.1341721862470641,-9.59,2.98,0.75,27.6875,0.6875,-35.0625,1746516952.229545
2248,-0.14180800172453928,0.1265363707695889,-0.05235987755982989,-9.33,2.89,0.78,28.0625,0.375,-34.6875,1746516952.2491155
2249,-0.16035212502697901,0.07744898555724837,-0.04690572364734761,-9.13,2.77,0.79,28.0625,0.375,-34.6875,1746516952.2701943
2250,-0.210530341021816,0.05345070834232634,-0.09926560120717749,-9.23,2.72,0.74,28.0625,0.375,-34.6875,1746516952.2897434
2251,-0.22907446432425577,0.061086523819801536,-0.10362892433716332,-9.26,2.74,0.77,28.5,1.0625,-34.6875,1746516952.309502
2252,-0.24107360293171676,0.1189005552921137,-0.11344640137963143,-9.46,2.5100000000000002,0.6900000000000001,28.5,1.0625,-34.6875,1746516952.3297327
2253,-0.2378011105842274,0.13308135546456762,-0.11235557059713497,-9.42,2.48,0.76,29.1875,1.5,-35.5,1746516952.3495345
2254,-0.21271200258680892,0.14289883250703572,-0.16907877128695067,-9.56,2.52,1.1400000000000001,29.1875,1.5,-35.5,1746516952.3702672
2255,-0.14508049407202864,0.1559888018969932,-0.17235126363444003,-9.63,2.44,1.09,29.1875,1.5,-35.5,1746516952.3898602
2256,-0.05781403147231216,0.16580627893946132,-0.10471975511965978,-9.790000000000001,2.35,0.8,29.5,2.1875,-33.375,1746516952.409724
2257,0.014180800172453928,0.14726215563702155,-0.018544123302439753,-9.59,2.27,0.73,29.5,2.1875,-33.375,1746516952.4296665
2258,0.06217735460229799,0.08399397025222712,0.02399827721492203,-9.6,2.2800000000000002,0.8200000000000001,28.75,3.25,-35.5,1746516952.449758
2259,0.07853981633974483,0.03381575425739013,0.04145156973486533,-9.55,2.42,0.86,28.75,3.25,-35.5,1746516952.4697208
2260,0.08399397025222712,0.00545415391248228,0.04036073895236887,-9.51,2.47,0.79,28.75,3.25,-35.5,1746516952.4900367
2261,0.08944812416470939,0.0,0.02945243112740431,-9.39,2.49,0.64,27.6875,3.6875,-33.0,1746516952.5098171
2262,0.0916297857297023,0.003272492347489368,0.016362461737446838,-9.42,2.59,0.63,27.6875,3.6875,-33.0,1746516952.529866
2263,0.09272061651219876,0.02399827721492203,0.004363323129985824,-9.450000000000001,2.71,0.65,29.5,1.5,-34.6875,1746516952.550122
2264,0.06217735460229799,0.04581489286485115,0.014180800172453928,-9.49,2.68,0.56,29.5,1.5,-34.6875,1746516952.5709968
2265,0.026179938779914945,0.02945243112740431,0.008726646259971648,-9.46,2.65,0.51,29.5,1.5,-34.6875,1746516952.5901601
2266,-0.008726646259971648,-0.013089969389957472,0.009817477042468103,-9.52,2.63,0.5,29.5,1.875,-35.0625,1746516952.610409
2267,-0.030543261909900768,-0.03381575425739013,0.05999569303730508,-9.57,2.63,0.56,29.5,1.875,-35.0625,1746516952.6302295
2268,-0.02945243112740431,-0.04254240051736178,0.07635815477475191,-9.52,2.63,0.73,29.875,2.5625,-35.5,1746516952.6504655
2269,-0.031634092692397225,-0.04145156973486533,0.07963064712224129,-9.41,2.58,0.7000000000000001,29.875,2.5625,-35.5,1746516952.6723342
2270,-0.006544984694978736,-0.05345070834232634,0.06544984694978735,-9.36,2.42,0.56,29.875,2.5625,-35.5,1746516952.690493
2271,0.030543261909900768,-0.07963064712224129,0.09817477042468103,-9.63,2.39,0.58,29.1875,1.875,-35.5,1746516952.710523
2272,0.04908738521234052,-0.07635815477475191,0.2301652951067522,-9.6,2.5300000000000002,0.9500000000000001,29.1875,1.875,-35.5,1746516952.732501
2273,0.11126473981463851,-0.05345070834232634,0.2945243112740431,-9.38,2.59,1.02,28.5,1.0625,-33.375,1746516952.75085
2274,0.16471544815696484,-0.04908738521234052,0.26725354171163174,-8.93,2.62,0.78,28.5,1.0625,-33.375,1746516952.7743495
2275,0.2007128639793479,-0.12435470920459599,0.09490227807719166,-8.84,2.6,0.59,28.5,1.0625,-33.375,1746516952.7908792
2276,0.20725784867432664,-0.11999138607461016,-0.011999138607461015,-9.3,2.8000000000000003,0.56,28.75,1.5,-34.25,1746516952.8135176
2277,0.16907877128695067,0.03490658503988659,0.10035643198967395,-9.4,3.0300000000000002,0.6,28.75,1.5,-34.25,1746516952.8335578
2278,0.1189005552921137,0.136353847812057,0.1439896632895322,-9.17,3.0100000000000002,0.68,29.5,1.0625,-34.25,1746516952.8511794
2279,0.07963064712224129,0.1505346479845109,0.030543261909900768,-8.950000000000001,2.97,0.6,29.5,1.0625,-34.25,1746516952.874522
2280,0.04363323129985824,0.10253809355466686,-0.11780972450961724,-9.14,2.99,0.56,29.5,1.0625,-34.25,1746516952.891205
2281,0.01090830782496456,0.020725784867432664,-0.16471544815696484,-9.32,3.0700000000000003,0.56,30.25,1.0625,-33.75,1746516952.9136863
2282,0.001090830782496456,-0.020725784867432664,-0.10144726277217041,-9.76,3.25,0.55,30.25,1.0625,-33.75,1746516952.9350436
2283,0.014180800172453928,-0.015271630954950384,0.10253809355466686,-9.85,3.1,0.45,28.75,1.5,-33.0,1746516952.9515297
2284,-0.003272492347489368,-0.09381144729469522,0.18216874067690814,-8.91,3.0,0.63,28.75,1.5,-33.0,1746516952.9750576
2285,-0.11017390903214205,-0.23234695667174513,-0.04690572364734761,-8.88,2.95,0.5700000000000001,28.75,1.5,-33.0,1746516952.9915328
2286,-0.2399827721492203,-0.2617993877991494,-0.14180800172453928,-9.27,2.97,0.5700000000000001,27.6875,0.375,-33.0,1746516953.0148776
2287,-0.28688849579656794,-0.19198621771937624,-0.09053895494720585,-9.24,2.98,0.66,27.6875,0.375,-33.0,1746516953.0350082
2288,-0.2552544031041707,-0.10362892433716332,0.007635815477475192,-9.46,2.84,0.73,29.875,0.6875,-33.75,1746516953.051888
2289,-0.20943951023931956,-0.0719948316447661,0.018544123302439753,-8.99,2.56,0.86,29.875,0.6875,-33.75,1746516953.0753794
2290,-0.2378011105842274,-0.10690141668465268,-0.13308135546456762,-8.92,2.5500000000000003,1.01,29.875,0.6875,-33.75,1746516953.0918787
2291,-0.28361600344907856,-0.16580627893946132,-0.21925698728178766,-9.450000000000001,2.57,0.73,30.25,1.875,-34.25,1746516953.115041
2292,-0.284706834231575,-0.1461713248545251,-0.14944381720201447,-9.74,2.86,0.8300000000000001,30.25,1.875,-34.25,1746516953.135284
2293,-0.23561944901923448,-0.0545415391248228,-0.055632369907319255,-9.22,2.75,1.22,28.75,1.5,-35.0625,1746516953.1522057
2294,-0.16144295580947549,-0.039269908169872414,-0.14944381720201447,-9.13,2.67,1.19,28.75,1.5,-35.0625,1746516953.1752717
2295,-0.10144726277217041,-0.013089969389957472,-0.21598449493429828,-9.71,2.67,0.77,28.75,1.5,-35.0625,1746516953.1922202
2296,-0.11344640137963143,0.06435901616729091,-0.1341721862470641,-9.67,2.67,0.99,28.0625,2.875,-34.6875,1746516953.215152
2297,-0.1538071403320003,0.08617563181722002,-0.09817477042468103,-9.620000000000001,2.54,1.02,28.0625,2.875,-34.6875,1746516953.2353346
2298,-0.1908953869368798,0.04908738521234052,-0.06763150851478027,-9.67,2.5100000000000002,0.9500000000000001,27.0,3.6875,-33.75,1746516953.252557
2299,-0.2530727415391778,-0.011999138607461015,-0.08290313946973066,-9.56,2.73,1.07,27.0,3.6875,-33.75,1746516953.2753282
2300,-0.29670597283903605,-0.011999138607461015,-0.14944381720201447,-10.14,2.86,0.86,27.0,3.6875,-33.75,1746516953.2926161
2301,-0.27379852640661045,0.04581489286485115,-0.026179938779914945,-9.83,2.68,0.91,29.1875,2.5625,-34.6875,1746516953.3151793
2302,-0.2378011105842274,-0.0272707695624114,0.00545415391248228,-9.52,2.45,1.11,29.1875,2.5625,-34.6875,1746516953.3354123
2303,-0.27598018797160334,-0.04799655442984406,0.05235987755982989,-9.61,2.57,1.12,30.25,4.375,-34.6875,1746516953.3531632
2304,-0.358883327441334,0.019634954084936207,0.09599310885968812,-9.0,2.49,1.01,30.25,4.375,-34.6875,1746516953.3754635
2305,-0.4145156973486533,-0.017453292519943295,0.016362461737446838,-8.72,2.3000000000000003,1.04,30.25,4.375,-34.6875,1746516953.3931923
2306,-0.4134248665661568,-0.09708393964218458,-0.11999138607461016,-9.02,2.5300000000000002,1.3,28.75,4.375,-34.25,1746516953.4151316
2307,-0.22689280275926285,-0.04254240051736178,-0.16907877128695067,-9.08,2.49,1.3900000000000001,28.75,4.375,-34.25,1746516953.4353445
2308,-0.10035643198967395,0.06763150851478027,-0.25089107997418486,-9.32,2.44,1.26,27.0,4.375,-34.6875,1746516953.4546936
2309,-0.11126473981463851,0.16035212502697901,-0.16689710972195776,-9.49,2.27,1.07,27.0,4.375,-34.6875,1746516953.47597
2310,-0.15926129424448257,0.10799224746714914,-0.10799224746714914,-9.47,2.24,1.05,27.25,5.0625,-33.75,1746516953.4938185
2311,-0.15489797111449674,-0.015271630954950384,-0.09381144729469522,-9.4,2.15,1.1,27.25,5.0625,-33.75,1746516953.5152955
2312,-0.11453723216212788,-0.11017390903214205,-0.08835729338221293,-9.49,2.12,1.1300000000000001,27.25,5.0625,-33.75,1746516953.5355318
2313,-0.08835729338221293,-0.11235557059713497,-0.04036073895236887,-9.450000000000001,2.1,1.2,29.1875,5.875,-33.0,1746516953.554222
2314,-0.11126473981463851,-0.03599741582238305,0.017453292519943295,-9.4,2.09,1.27,29.1875,5.875,-33.0,1746516953.5758224
2315,-0.1559888018969932,0.038179077387375956,0.031634092692397225,-9.44,2.09,1.3,29.875,5.875,-35.5,1746516953.594229
2316,-0.14726215563702155,0.06217735460229799,-0.014180800172453928,-9.44,1.95,1.29,29.875,5.875,-35.5,1746516953.615448
2317,-0.061086523819801536,0.05999569303730508,-0.05999569303730508,-9.620000000000001,1.96,1.4000000000000001,29.875,5.875,-35.5,1746516953.6356544
2318,0.050178215994836975,0.061086523819801536,-0.06326818538479445,-9.74,1.96,1.4000000000000001,28.0625,7.25,-33.75,1746516953.6547604
2319,0.15271630954950383,0.06217735460229799,0.04036073895236887,-9.76,2.08,1.29,28.0625,7.25,-33.75,1746516953.6757324
2320,0.21925698728178766,0.039269908169872414,0.13744467859455345,-9.66,2.24,1.24,28.5,5.875,-35.5,1746516953.6946092
2321,0.23452861823673804,0.011999138607461015,0.1832595714594046,-9.4,2.37,1.05,28.5,5.875,-35.5,1746516953.7156157
2322,0.20180369476184434,-0.0272707695624114,0.13308135546456762,-9.27,2.43,1.07,28.5,5.875,-35.5,1746516953.735643
2323,0.18980455615438332,-0.05781403147231216,0.037088246604879506,-9.38,2.56,1.12,28.5,5.875,-33.75,1746516953.755504
2324,0.23452861823673804,0.04036073895236887,0.037088246604879506,-9.72,2.69,0.86,28.5,5.875,-33.75,1746516953.7760487
2325,0.2203478180642841,0.08399397025222712,0.08399397025222712,-9.66,2.71,0.9,28.75,6.1875,-33.75,1746516953.7951202
2326,0.09926560120717749,0.11562806294462433,0.1265363707695889,-9.46,2.54,0.98,28.75,6.1875,-33.75,1746516953.8155653
2327,0.07308566242726255,0.006544984694978736,0.07635815477475191,-9.27,2.48,0.96,28.75,6.1875,-33.75,1746516953.835811
2328,0.04254240051736178,-0.08944812416470939,0.04145156973486533,-9.58,2.71,0.85,30.25,5.875,-34.6875,1746516953.8557105
2329,-0.04145156973486533,-0.04036073895236887,0.1189005552921137,-9.75,2.92,0.92,30.25,5.875,-34.6875,1746516953.8765018
2330,-0.1308996938995747,0.03599741582238305,0.16253378659197193,-9.38,2.89,0.99,28.5,4.75,-34.25,1746516953.8956285
2331,-0.17889624832941878,0.04690572364734761,0.10799224746714914,-9.23,2.7800000000000002,0.92,28.5,4.75,-34.25,1746516953.9156733
2332,-0.24652775684419906,0.017453292519943295,-0.044724062082354694,-8.96,2.69,0.76,28.5,4.75,-34.25,1746516953.9357982
2333,-0.35779249665883756,0.016362461737446838,-0.18980455615438332,-9.32,2.7600000000000002,0.8200000000000001,28.0625,5.0625,-32.5625,1746516953.9568012
2334,-0.43524148221608594,0.04145156973486533,-0.2181661564992912,-9.68,2.79,1.03,28.0625,5.0625,-32.5625,1746516953.9762123
2335,-0.4559672670835186,0.03381575425739013,-0.12326387842209953,-9.52,2.61,0.96,29.1875,4.75,-33.375,1746516953.9957693
2336,-0.4734205596034619,-0.02399827721492203,-0.10253809355466686,-9.3,2.62,0.9500000000000001,29.1875,4.75,-33.375,1746516954.015811
2337,-0.47778388273344774,-0.05890486225480862,-0.15489797111449674,-9.47,2.5500000000000003,1.16,29.1875,4.75,-33.375,1746516954.035865
2338,-0.4286964975211072,-0.0719948316447661,-0.15489797111449674,-9.88,2.43,1.24,28.75,6.1875,-34.25,1746516954.0563676
2339,-0.32179508083645453,-0.1090830782496456,-0.04363323129985824,-10.08,2.12,1.3800000000000001,28.75,6.1875,-34.25,1746516954.0778737
2340,-0.2203478180642841,-0.16144295580947549,0.12217304763960307,-9.88,1.92,1.44,30.25,8.0625,-33.75,1746516954.0961616
2341,-0.16580627893946132,-0.19853120241435498,0.24652775684419906,-9.5,1.93,1.56,30.25,8.0625,-33.75,1746516954.1165087
2342,-0.1265363707695889,-0.2301652951067522,0.2279836335417593,-9.03,2.04,1.36,30.25,8.0625,-33.75,1746516954.1362667
2343,-0.08290313946973066,-0.22362031041177347,0.13853550937704992,-9.0,2.19,1.36,28.5,7.25,-34.25,1746516954.1585968
2344,-0.0272707695624114,-0.18762289458939044,0.06217735460229799,-8.94,2.14,1.46,28.5,7.25,-34.25,1746516954.1788168
2345,0.031634092692397225,-0.13853550937704992,0.02399827721492203,-9.16,2.06,1.47,27.25,6.1875,-33.75,1746516954.1965096
2346,0.04690572364734761,-0.020725784867432664,0.09381144729469522,-9.16,2.14,1.6300000000000001,27.25,6.1875,-33.75,1746516954.2175207
2347,0.04908738521234052,0.007635815477475192,0.09708393964218458,-9.15,2.15,1.55,27.25,6.1875,-33.75,1746516954.236702
2348,0.07635815477475191,-0.02181661564992912,0.031634092692397225,-9.24,2.19,1.4000000000000001,29.5,8.375,-33.75,1746516954.2568994
2349,0.13744467859455345,-0.04581489286485115,-0.013089969389957472,-9.11,2.39,1.73,29.5,8.375,-33.75,1746516954.2784054
2350,0.23125612588924865,-0.03599741582238305,-0.04690572364734761,-9.48,2.37,1.74,29.5,6.5625,-34.6875,1746516954.29702
2351,0.35124751196385884,0.02181661564992912,0.04799655442984406,-9.63,2.25,1.6400000000000001,29.5,6.5625,-34.6875,1746516954.3189657
2352,0.4505131131710363,0.05672320068981571,0.13308135546456762,-9.51,2.27,1.58,29.5,6.5625,-34.6875,1746516954.3372464
2353,0.5159629601208237,0.039269908169872414,0.1832595714594046,-9.39,2.32,1.36,27.6875,7.25,-35.5,1746516954.358551
2354,0.5377795757707527,0.022907446432425576,0.19416787928436915,-9.27,2.4,1.27,27.6875,7.25,-35.5,1746516954.3807666
2355,0.5443245604657315,0.039269908169872414,0.18216874067690814,-9.18,2.49,1.44,27.25,6.5625,-34.25,1746516954.401397
2356,0.5966844380255614,0.06326818538479445,0.1439896632895322,-9.52,2.61,1.32,27.25,6.5625,-34.25,1746516954.422719
2357,0.6850417314077744,0.11126473981463851,0.18653206380689397,-9.58,2.65,1.29,28.0625,4.0625,-35.875,1746516954.4412818
2358,0.779944009484966,0.18544123302439752,0.3021601267515183,-9.4,2.9,1.1300000000000001,28.0625,4.0625,-35.875,1746516954.464299
2359,0.7766715171374766,0.24980024919168842,0.35779249665883756,-8.74,2.98,0.9,28.0625,4.0625,-35.875,1746516954.484184
2360,0.6588617926278594,0.24434609527920614,0.20507618710933373,-8.42,3.02,0.65,29.1875,2.875,-35.0625,1746516954.5040324
2361,0.4657847441259867,0.18762289458939044,0.002181661564992912,-8.89,3.19,0.63,29.1875,2.875,-35.0625,1746516954.5240498
2362,0.2999784651865254,0.1308996938995747,-0.07526732399225546,-9.39,3.2600000000000002,0.68,29.875,3.25,-34.25,1746516954.5440502
2363,0.2203478180642841,0.08508480103472356,-0.03490658503988659,-9.57,3.34,0.6900000000000001,29.875,3.25,-34.25,1746516954.564062
2364,0.18544123302439752,0.04581489286485115,0.003272492347489368,-9.450000000000001,3.35,0.65,29.875,3.25,-34.25,1746516954.584428
2365,0.10799224746714914,0.04145156973486533,0.001090830782496456,-9.44,3.41,0.61,28.75,1.0625,-34.25,1746516954.6044495
2366,0.05672320068981571,0.05781403147231216,0.02181661564992912,-9.53,3.4,0.61,28.75,1.0625,-34.25,1746516954.6242213
2367,0.03490658503988659,0.055632369907319255,0.09490227807719166,-9.57,3.38,0.59,27.25,1.0625,-34.25,1746516954.6443992
2368,-0.004363323129985824,0.04254240051736178,0.1265363707695889,-9.19,3.29,0.58,27.25,1.0625,-34.25,1746516954.6657927
2369,-0.12217304763960307,0.004363323129985824,0.06981317007977318,-8.950000000000001,3.23,0.58,27.25,1.0625,-34.25,1746516954.6845868
2370,-0.23234695667174513,-0.05126904677733343,-0.05235987755982989,-9.18,3.15,0.68,28.0625,1.0625,-33.25,1746516954.7046554
2371,-0.2617993877991494,-0.05126904677733343,-0.050178215994836975,-9.33,3.21,0.74,28.0625,1.0625,-33.25,1746516954.7258804
2372,-0.23452861823673804,-0.017453292519943295,-0.001090830782496456,-9.44,3.24,0.7000000000000001,30.6875,0.375,-34.1875,1746516954.7447674
2373,-0.22471114119426994,0.025089107997418487,0.04799655442984406,-9.47,3.21,0.72,30.6875,0.375,-34.1875,1746516954.7672813
2374,-0.22362031041177347,0.03381575425739013,0.07635815477475191,-9.36,2.97,0.8200000000000001,30.6875,0.375,-34.1875,1746516954.7849069
2375,-0.20398535632683726,0.004363323129985824,0.016362461737446838,-9.06,2.9,0.91,28.75,2.1875,-34.6875,1746516954.8050141
2376,-0.21162117180431245,-0.011999138607461015,-0.06981317007977318,-9.06,2.87,0.84,28.75,2.1875,-34.6875,1746516954.8269887
2377,-0.2585268954516601,0.004363323129985824,-0.08508480103472356,-9.41,2.9,0.84,28.5,2.875,-34.5625,1746516954.8454924
2378,-0.2596177262341565,0.028361600344907856,-0.019634954084936207,-9.5,2.89,0.89,28.5,2.875,-34.5625,1746516954.8681746
2379,-0.22689280275926285,0.031634092692397225,0.018544123302439753,-9.25,2.91,0.93,28.5,2.875,-34.5625,1746516954.8853683
2380,-0.18216874067690814,0.003272492347489368,-0.016362461737446838,-9.06,2.82,0.89,28.5,1.0625,-32.875,1746516954.907277
2381,-0.1734420944169365,-0.032724923474893676,-0.08835729338221293,-8.98,2.84,0.87,28.5,1.0625,-32.875,1746516954.9282086
2382,-0.21489366415180183,0.016362461737446838,-0.11453723216212788,-9.22,2.96,0.79,29.1875,2.875,-34.5625,1746516954.945766
2383,-0.23452861823673804,0.08726646259971647,-0.0719948316447661,-9.290000000000001,2.92,0.85,29.1875,2.875,-34.5625,1746516954.968351
2384,-0.20616701789183017,0.07744898555724837,-0.06217735460229799,-9.39,2.84,0.98,29.1875,2.875,-34.5625,1746516954.9857612
2385,-0.16580627893946132,0.04363323129985824,-0.04254240051736178,-9.14,2.7600000000000002,0.99,30.6875,4.0625,-33.6875,1746516955.005758
2386,-0.1439896632895322,-0.03381575425739013,-0.07635815477475191,-9.05,2.63,0.97,30.6875,4.0625,-33.6875,1746516955.0287263
2387,-0.14508049407202864,-0.07090400086226964,-0.12435470920459599,-9.19,2.72,1.03,29.5,3.6875,-35.375,1746516955.0461822
2388,-0.13526301702956053,0.014180800172453928,-0.06981317007977318,-9.63,2.95,0.9500000000000001,29.5,3.6875,-35.375,1746516955.0694578
2389,-0.09708393964218458,0.10581058590215622,-0.003272492347489368,-9.4,2.92,0.99,29.5,3.6875,-35.375,1746516955.0861607
2390,-0.07090400086226964,0.08072147790473774,-0.031634092692397225,-9.16,2.79,0.91,28.75,4.375,-32.875,1746516955.1089647
2391,-0.06654067773228381,0.007635815477475192,-0.10144726277217041,-9.16,2.83,0.84,28.75,4.375,-32.875,1746516955.1295092
2392,-0.05999569303730508,0.0,-0.1461713248545251,-9.41,2.99,0.96,28.0625,3.6875,-32.875,1746516955.1465564
2393,-0.04799655442984406,0.06544984694978735,-0.08726646259971647,-9.81,3.09,0.9,28.0625,3.6875,-32.875,1746516955.1698592
2394,-0.02399827721492203,0.11780972450961724,0.03381575425739013,-9.73,3.0,0.88,28.0625,3.6875,-32.875,1746516955.1867414
2395,-0.00545415391248228,0.08617563181722002,0.10690141668465268,-9.44,2.75,0.9,30.25,2.5625,-33.6875,1746516955.2096488
2396,-0.014180800172453928,0.008726646259971648,0.05890486225480862,-9.21,2.8000000000000003,0.99,30.25,2.5625,-33.6875,1746516955.2298436
2397,-0.0545415391248228,-0.04363323129985824,-0.006544984694978736,-9.22,2.91,0.79,30.25,4.75,-34.5625,1746516955.2470994
2398,-0.136353847812057,-0.04145156973486533,-0.030543261909900768,-9.33,2.95,0.7000000000000001,30.25,4.75,-34.5625,1746516955.2697146
2399,-0.19198621771937624,-0.017453292519943295,0.009817477042468103,-9.32,2.8000000000000003,0.85,30.25,4.75,-34.5625,1746516955.287155
2400,-0.19198621771937624,-0.04254240051736178,-0.011999138607461015,-9.26,2.79,1.12,28.75,4.375,-32.875,1746516955.3096812
2401,-0.16144295580947549,-0.07635815477475191,-0.03490658503988659,-9.16,2.74,1.05,28.75,4.375,-32.875,1746516955.3298838
2402,-0.10253809355466686,-0.11999138607461016,-0.09053895494720585,-9.33,2.8000000000000003,0.93,28.75,3.6875,-34.1875,1746516955.3478584
2403,-0.04908738521234052,-0.10035643198967395,-0.04581489286485115,-9.44,2.9,0.98,28.75,3.6875,-34.1875,1746516955.369829
2404,-0.006544984694978736,-0.050178215994836975,0.030543261909900768,-9.43,2.9,0.99,28.75,3.6875,-34.1875,1746516955.3878133
2405,0.017453292519943295,-0.028361600344907856,0.07853981633974483,-9.21,2.7600000000000002,1.02,29.1875,5.0625,-32.5,1746516955.4092312
2406,0.003272492347489368,-0.07417649320975901,0.006544984694978736,-9.05,2.7,0.75,29.1875,5.0625,-32.5,1746516955.4300382
2407,-0.06981317007977318,-0.09272061651219876,-0.0272707695624114,-8.96,2.84,0.99,29.1875,5.0625,-34.1875,1746516955.4481845
2408,-0.14726215563702155,-0.0719948316447661,-0.08399397025222712,-9.23,2.84,1.0,29.1875,5.0625,-34.1875,1746516955.4699016
2409,-0.14508049407202864,-0.01090830782496456,-0.10362892433716332,-9.25,2.68,1.17,30.6875,4.375,-35.0,1746516955.488201
2410,-0.07744898555724837,0.0272707695624114,-0.1189005552921137,-9.38,2.49,1.12,30.6875,4.375,-35.0,1746516955.5098433
2411,-0.04363323129985824,0.04145156973486533,-0.11671889372712078,-9.43,2.52,1.1300000000000001,30.6875,4.375,-35.0,1746516955.5300207
2412,-0.06763150851478027,0.016362461737446838,-0.09053895494720585,-9.48,2.5500000000000003,1.1400000000000001,27.0,5.875,-33.25,1746516955.5488055
2413,-0.08835729338221293,0.019634954084936207,-0.044724062082354694,-9.51,2.59,0.99,27.0,5.875,-33.25,1746516955.5700364
2414,-0.10035643198967395,0.006544984694978736,-0.002181661564992912,-9.39,2.57,1.04,28.75,5.5,-33.25,1746516955.5886662
2415,-0.07308566242726255,-0.032724923474893676,-0.002181661564992912,-9.53,2.66,1.2,28.75,5.5,-33.25,1746516955.61003
2416,0.013089969389957472,0.022907446432425576,0.05235987755982989,-9.44,2.59,1.29,28.75,5.5,-33.25,1746516955.6300998
2417,0.11235557059713497,0.07635815477475191,0.12544553998709243,-9.370000000000001,2.58,1.32,29.875,5.0625,-34.1875,1746516955.6491344
2418,0.1439896632895322,0.04363323129985824,0.1308996938995747,-9.290000000000001,2.7800000000000002,1.12,29.875,5.0625,-34.1875,1746516955.6700344
2419,0.10362892433716332,0.006544984694978736,0.11235557059713497,-9.16,2.83,1.02,29.875,5.875,-32.875,1746516955.6892087
2420,0.039269908169872414,0.019634954084936207,0.03599741582238305,-9.0,2.87,0.9500000000000001,29.875,5.875,-32.875,1746516955.7099056
2421,0.03490658503988659,0.06435901616729091,-0.07417649320975901,-9.51,2.82,1.03,29.875,5.875,-32.875,1746516955.7303562
2422,0.05999569303730508,0.11344640137963143,-0.04145156973486533,-9.78,2.79,1.0,29.875,5.875,-34.1875,1746516955.749591
2423,-0.006544984694978736,0.10144726277217041,0.14835298641951802,-9.67,3.09,1.03,29.875,5.875,-34.1875,1746516955.7701037
2424,-0.03599741582238305,0.07090400086226964,0.17453292519943295,-9.44,3.04,0.81,28.5,4.0625,-32.5,1746516955.7895799
2425,-0.03381575425739013,-0.050178215994836975,0.10362892433716332,-9.06,2.95,0.97,28.5,4.0625,-32.5,1746516955.8099155
2426,0.011999138607461015,-0.05672320068981571,0.03381575425739013,-9.11,2.7600000000000002,0.9500000000000001,28.5,4.0625,-32.5,1746516955.8301775
2427,0.015271630954950384,-0.030543261909900768,0.037088246604879506,-9.36,2.96,1.02,28.75,5.0625,-32.5,1746516955.850382
2428,-0.008726646259971648,0.05781403147231216,0.12217304763960307,-9.1,2.92,1.03,28.75,5.0625,-32.5,1746516955.8705347
2429,0.014180800172453928,0.04254240051736178,0.06435901616729091,-8.67,2.93,1.07,31.0,4.0625,-33.6875,1746516955.8904264
2430,0.050178215994836975,-0.04581489286485115,-0.15489797111449674,-8.51,2.89,0.9,31.0,4.0625,-33.6875,1746516955.9102488
2431,0.044724062082354694,-0.032724923474893676,-0.2279836335417593,-9.1,3.0300000000000002,0.76,31.0,4.0625,-33.6875,1746516955.930365
2432,0.037088246604879506,0.09053895494720585,-0.11453723216212788,-9.49,3.22,0.73,30.25,4.75,-32.875,1746516955.9505467
2433,-0.039269908169872414,0.18980455615438332,0.00545415391248228,-9.18,3.14,0.77,30.25,4.75,-32.875,1746516955.9709249
2434,-0.14289883250703572,0.1908953869368798,-0.04145156973486533,-8.8,2.99,0.6900000000000001,28.75,4.75,-34.5625,1746516955.9904828
2435,-0.19198621771937624,0.14726215563702155,-0.20943951023931956,-8.9,2.87,0.68,28.75,4.75,-34.5625,1746516956.010588
2436,-0.23234695667174513,0.19416787928436915,-0.3141592653589793,-9.21,2.92,0.66,28.75,4.75,-34.5625,1746516956.0306659
2437,-0.3108867730114899,0.24434609527920614,-0.2476185876266955,-9.59,3.04,0.73,28.0625,4.375,-33.6875,1746516956.0521257
2438,-0.33052172709642613,0.18544123302439752,-0.1265363707695889,-10.13,2.82,0.7000000000000001,28.0625,4.375,-33.6875,1746516956.071921
2439,-0.3239767424014474,0.210530341021816,0.17562375598192942,-10.14,2.7600000000000002,0.88,29.875,4.375,-33.25,1746516956.090959
2440,-0.31525009614147576,0.1265363707695889,0.27598018797160334,-9.5,2.73,0.9500000000000001,29.875,4.375,-33.25,1746516956.111465
2441,-0.35561083509384467,-0.031634092692397225,0.07308566242726255,-9.15,2.72,0.64,29.875,4.375,-33.25,1746516956.1314306
2442,-0.39269908169872414,-0.02945243112740431,-0.030543261909900768,-9.19,2.82,0.6,30.25,7.25,-32.875,1746516956.1534777
2443,-0.35997415822383044,0.05781403147231216,-0.003272492347489368,-9.73,2.77,0.97,30.25,7.25,-32.875,1746516956.17338
2444,-0.29670597283903605,0.1810779098944117,0.07853981633974483,-9.59,2.6,1.1300000000000001,30.25,7.0,-32.5,1746516956.191574
2445,-0.22689280275926285,0.18216874067690814,0.002181661564992912,-8.93,2.42,1.08,30.25,7.0,-32.5,1746516956.2131035
2446,-0.2083486794568231,0.07526732399225546,-0.2203478180642841,-9.27,2.3000000000000003,0.63,30.25,7.0,-32.5,1746516956.231714
2447,-0.23125612588924865,0.07308566242726255,-0.18871372537188688,-9.450000000000001,2.58,0.73,29.875,6.5625,-33.25,1746516956.2552302
2448,-0.2203478180642841,0.10035643198967395,-0.08072147790473774,-9.66,2.65,0.8200000000000001,29.875,6.5625,-33.25,1746516956.275045
2449,-0.18435040224190105,0.16689710972195776,0.017453292519943295,-9.52,2.61,0.78,29.5,8.0625,-32.0625,1746516956.2918725
2450,-0.10471975511965978,0.18871372537188688,-0.03490658503988659,-9.52,2.6,0.96,29.5,8.0625,-32.0625,1746516956.313069
2451,-0.0545415391248228,0.19416787928436915,-0.06326818538479445,-9.33,2.52,0.8200000000000001,29.5,8.0625,-32.0625,1746516956.3318934
2452,-0.04908738521234052,0.14289883250703572,-0.09272061651219876,-9.73,2.54,0.61,32.0625,7.6875,-31.6875,1746516956.3531425
2453,-0.0545415391248228,0.13962634015954636,0.04145156973486533,-9.85,2.65,0.72,32.0625,7.6875,-31.6875,1746516956.3757563
2454,0.004363323129985824,0.14944381720201447,0.17016960206944712,-9.84,2.54,0.8300000000000001,33.1875,8.375,-32.0625,1746516956.3923812
2455,0.11671889372712078,0.19744037163185854,0.2901609881440573,-9.61,2.39,0.8200000000000001,33.1875,8.375,-32.0625,1746516956.4150379
2456,0.21707532571679475,0.1832595714594046,0.3119776037939864,-9.19,2.35,0.76,33.1875,8.375,-32.0625,1746516956.4324946
2457,0.25634523388666713,0.06435901616729091,0.1832595714594046,-8.8,2.29,0.5700000000000001,31.0,9.1875,-31.1875,1746516956.4559255
2458,0.2814343418840856,-0.003272492347489368,0.044724062082354694,-9.0,2.39,0.56,31.0,9.1875,-31.1875,1746516956.4760828
2459,0.38942658935123475,0.08617563181722002,0.031634092692397225,-9.28,2.47,0.62,31.6875,7.0,-32.5625,1746516956.492967
2460,0.49741883681838395,0.19416787928436915,0.04908738521234052,-9.3,2.45,0.67,31.6875,7.0,-32.5625,1746516956.5157423
2461,0.5901394533305827,0.22580197197676638,0.00545415391248228,-9.450000000000001,2.48,0.54,31.6875,7.0,-32.5625,1746516956.532921
2462,0.65558930028037,0.2279836335417593,0.03381575425739013,-9.44,2.69,0.36,31.0,4.6875,-29.1875,1746516956.555345
2463,0.6904958853202566,0.21380283336930536,0.05672320068981571,-9.8,2.7600000000000002,0.4,31.0,4.6875,-29.1875,1746516956.5762181
2464,0.7046766854927106,0.2530727415391778,0.1734420944169365,-9.9,2.92,0.38,32.0625,6.0625,-30.0,1746516956.59319
2465,0.6894050545377601,0.24652775684419906,0.21162117180431245,-9.67,3.0100000000000002,0.02,32.0625,6.0625,-30.0,1746516956.6161587
2466,0.6119560689805118,0.17889624832941878,0.19962203319685143,-9.27,3.11,-0.22,32.0625,6.0625,-30.0,1746516956.633269
2467,0.5399612373357457,0.05235987755982989,0.14944381720201447,-9.120000000000001,3.17,-0.24,33.5,5.0,-31.25,1746516956.6561172
2468,0.49414634447089456,-0.002181661564992912,0.136353847812057,-9.35,3.47,-0.08,33.5,5.0,-31.25,1746516956.6763294
2469,0.47451139038595835,0.09599310885968812,0.23125612588924865,-9.120000000000001,3.56,-0.14,32.0625,4.0625,-31.6875,1746516956.6937592
2470,0.45487643630102215,0.1712604328519436,0.2203478180642841,-8.84,3.4,-0.37,32.0625,4.0625,-31.6875,1746516956.7159932
2471,0.3490658503988659,0.21380283336930536,0.17453292519943295,-8.67,3.36,-0.62,32.0625,4.0625,-31.6875,1746516956.733636
2472,0.17235126363444003,0.21707532571679475,0.07526732399225546,-8.77,3.42,-0.59,32.0625,2.5625,-30.375,1746516956.7561028
2473,0.016362461737446838,0.17562375598192942,-0.039269908169872414,-8.94,3.39,-0.41000000000000003,32.0625,2.5625,-30.375,1746516956.776312
2474,-0.03381575425739013,0.18216874067690814,-0.07853981633974483,-8.93,3.35,-0.37,33.875,1.5,-31.1875,1746516956.7941852
2475,-0.05781403147231216,0.19962203319685143,-0.1189005552921137,-8.98,3.19,-0.56,33.875,1.5,-31.1875,1746516956.816135
2476,-0.11671889372712078,0.24870941840919197,-0.12980886311707826,-9.040000000000001,3.18,-0.52,33.875,1.5,-31.1875,1746516956.834197
2477,-0.15817046346198613,0.2683443724941282,-0.14944381720201447,-9.33,3.04,-0.36,33.875,1.875,-29.5625,1746516956.8562472
2478,-0.08617563181722002,0.2519819107566813,-0.12108221685710661,-8.82,2.97,-0.26,33.875,1.875,-29.5625,1746516956.8763943
2479,-0.002181661564992912,0.28688849579656794,-0.19744037163185854,-8.68,2.97,-0.34,33.875,2.5625,-30.0,1746516956.8947334
2480,-0.028361600344907856,0.41560652813114973,-0.31525009614147576,-9.4,2.95,-0.8,33.875,2.5625,-30.0,1746516956.9167113
2481,-0.08726646259971647,0.5399612373357457,-0.24652775684419906,-9.43,2.93,-0.67,33.1875,1.875,-29.1875,1746516956.934866
2482,-0.0818123086872342,0.48432886742842646,-0.14944381720201447,-9.43,2.77,-0.71,33.1875,1.875,-29.1875,1746516956.9563756
2483,-0.011999138607461015,0.3534291735288517,-0.1341721862470641,-9.4,2.8000000000000003,-0.75,33.1875,1.875,-29.1875,1746516956.9764154
2484,0.07090400086226964,0.28688849579656794,-0.17016960206944712,-9.46,2.85,-0.79,35.375,3.25,-28.25,1746516956.9950552
2485,0.1341721862470641,0.3097959422289935,-0.1341721862470641,-10.120000000000001,2.77,-0.8200000000000001,35.375,3.25,-28.25,1746516957.0165124
2486,0.17235126363444003,0.3523383427463553,0.08072147790473774,-10.01,2.69,-0.8200000000000001,35.0,4.0625,-26.6875,1746516957.0352724
2487,0.21925698728178766,0.23234695667174513,0.17780541754692233,-9.540000000000001,2.46,-1.03,35.0,4.0625,-26.6875,1746516957.056415
2488,0.24980024919168842,0.0545415391248228,0.1559888018969932,-9.8,2.66,-1.11,35.0,4.0625,-26.6875,1746516957.0763698
2489,0.27707101875409984,0.011999138607461015,0.24870941840919197,-9.53,2.84,-0.9,36.75,3.6875,-28.25,1746516957.0955029
2490,0.34033920413889424,0.028361600344907856,0.32834006553143325,-9.32,2.7600000000000002,-1.16,36.75,3.6875,-28.25,1746516957.1166325
2491,0.4188790204786391,0.019634954084936207,0.38288160465625604,-9.17,2.73,-1.11,34.6875,3.6875,-28.75,1746516957.1356094
2492,0.4276056667386107,0.019634954084936207,0.37088246604879505,-8.83,2.75,-1.33,34.6875,3.6875,-28.75,1746516957.1566582
2493,0.3817907738737596,0.025089107997418487,0.2748893571891069,-8.71,2.83,-1.26,34.6875,3.6875,-28.75,1746516957.1764872
2494,0.36106498900632694,0.04363323129985824,0.23343778745424157,-8.950000000000001,2.98,-1.33,33.875,1.5,-25.75,1746516957.1959293
2495,0.28907015736156083,0.1439896632895322,0.136353847812057,-8.99,3.21,-1.46,33.875,1.5,-25.75,1746516957.2162242
2496,0.25634523388666713,0.15817046346198613,0.09599310885968812,-9.05,3.37,-1.45,35.75,-0.375,-26.5625,1746516957.2358932
2497,0.17016960206944712,0.1407171709420428,0.039269908169872414,-9.57,3.5100000000000002,-1.58,35.75,-0.375,-26.5625,1746516957.2566292
2498,0.16144295580947549,0.1439896632895322,0.12217304763960307,-9.41,3.54,-1.43,35.75,-0.375,-26.5625,1746516957.2767384
2499,0.13199052468207118,0.1407171709420428,0.15926129424448257,-9.26,3.5700000000000003,-1.71,36.0625,0.25,-27.5,1746516957.2962966
2500,0.016362461737446838,0.1407171709420428,0.1538071403320003,-9.08,3.66,-1.71,36.0625,0.25,-27.5,1746516957.3164303
2501,-0.11344640137963143,0.10035643198967395,0.12544553998709243,-9.22,3.65,-1.6600000000000001,36.0625,-0.25,-26.6875,1746516957.3363466
2502,-0.20289452554434081,0.031634092692397225,0.1505346479845109,-9.15,3.5500000000000003,-1.6500000000000001,36.0625,-0.25,-26.6875,1746516957.3566043
2503,-0.24216443371421323,-0.07417649320975901,0.12435470920459599,-8.790000000000001,3.37,-1.6600000000000001,36.0625,-0.25,-26.6875,1746516957.3766403
2504,-0.3337942194439155,-0.09926560120717749,0.09272061651219876,-8.64,3.5500000000000003,-1.62,35.375,-1.375,-26.25,1746516957.3966172
2505,-0.4854196982109229,0.001090830782496456,-0.006544984694978736,-8.72,3.58,-1.54,35.375,-1.375,-26.25,1746516957.4170687
2506,-0.5835944686356039,0.08399397025222712,-0.05672320068981571,-8.83,3.34,-1.34,34.6875,-0.375,-27.0625,1746516957.436685
2507,-0.507236313860852,0.05126904677733343,-0.12435470920459599,-8.66,3.16,-1.22,34.6875,-0.375,-27.0625,1746516957.458133
2508,-0.35561083509384467,0.022907446432425576,-0.19744037163185854,-8.84,3.2600000000000002,-1.33,34.6875,-0.375,-27.0625,1746516957.4768972
2509,-0.3196134192714616,0.14289883250703572,-0.12108221685710661,-9.21,3.29,-1.4000000000000001,36.0625,1.0,-25.25,1746516957.497077
2510,-0.34579335805137656,0.16907877128695067,-0.014180800172453928,-9.26,3.0100000000000002,-1.24,36.0625,1.0,-25.25,1746516957.5181727
2511,-0.346884188833873,0.061086523819801536,0.009817477042468103,-8.75,2.86,-1.23,37.5625,0.25,-27.75,1746516957.5371745
2512,-0.28579766501407144,-0.06763150851478027,-0.07963064712224129,-8.68,2.92,-1.23,37.5625,0.25,-27.75,1746516957.5589197
2513,-0.11999138607461016,-0.05672320068981571,-0.14944381720201447,-9.370000000000001,3.08,-1.1500000000000001,37.5625,0.25,-27.75,1746516957.5774465
2514,0.031634092692397225,0.05672320068981571,0.003272492347489368,-9.85,3.08,-1.07,35.375,1.75,-25.375,1746516957.5986488
2515,0.16471544815696484,0.04581489286485115,0.20943951023931956,-9.51,2.91,-1.06,35.375,1.75,-25.375,1746516957.6239448
2516,0.22252947962927702,-0.06654067773228381,0.24107360293171676,-9.06,2.99,-1.16,35.0,0.5625,-25.375,1746516957.642081
2517,0.1930770485018727,-0.10471975511965978,0.18544123302439752,-8.69,3.24,-1.4000000000000001,35.0,0.5625,-25.375,1746516957.6635993
2518,0.16144295580947549,-0.08835729338221293,0.1308996938995747,-8.81,3.2800000000000002,-1.46,35.0,0.5625,-25.375,1746516957.6816695
2519,0.17562375598192942,-0.026179938779914945,0.21489366415180183,-9.17,3.48,-1.17,36.5,0.375,-26.1875,1746516957.7036917
2520,0.24434609527920614,0.011999138607461015,0.29670597283903605,-8.88,3.56,-1.25,36.5,0.375,-26.1875,1746516957.7237031
2521,0.28579766501407144,0.02945243112740431,0.2748893571891069,-8.76,3.5300000000000002,-1.33,36.75,1.0625,-27.0,1746516957.7417
2522,0.28688849579656794,0.055632369907319255,0.25416357232167425,-9.28,3.74,-1.56,36.75,1.0625,-27.0,1746516957.76375
2523,0.24107360293171676,0.10253809355466686,0.3937899124812206,-9.290000000000001,3.77,-1.56,35.0,-0.25,-27.375,1746516957.782064
2524,0.17235126363444003,0.07635815477475191,0.48432886742842646,-9.1,3.96,-1.53,35.0,-0.25,-27.375,1746516957.8039615
2525,0.050178215994836975,0.09926560120717749,0.5050546522958591,-8.27,3.92,-1.59,35.0,-0.25,-27.375,1746516957.8237908
2526,-0.10144726277217041,0.07744898555724837,0.31306843457648287,-8.18,3.81,-1.6300000000000001,35.0,-2.5,-25.6875,1746516957.8421304
2527,-0.23343778745424157,-0.04145156973486533,-0.006544984694978736,-8.78,3.95,-1.6500000000000001,35.0,-2.5,-25.6875,1746516957.8724809
2528,-0.2552544031041707,-0.030543261909900768,0.004363323129985824,-9.02,4.1,-1.56,35.375,-2.25,-25.25,1746516957.882394
2529,-0.21489366415180183,0.1559888018969932,0.23234695667174513,-9.120000000000001,4.21,-1.37,35.375,-2.25,-25.25,1746516957.9054863
2530,-0.21271200258680892,0.21707532571679475,0.2825251726665821,-8.63,3.97,-1.51,35.375,-2.25,-25.25,1746516957.9252167
2531,-0.23561944901923448,0.17453292519943295,0.3021601267515183,-8.64,4.04,-1.55,35.75,-0.75,-26.1875,1746516957.945245
2532,-0.3021601267515183,0.09599310885968812,0.34143003492139073,-8.81,4.21,-1.57,35.75,-0.75,-26.1875,1746516957.9721887
2533,-0.385063266221249,0.05999569303730508,0.4308781590861001,-9.01,4.29,-1.54,37.1875,-2.5625,-26.1875,1746516957.989185
2534,-0.4134248665661568,0.038179077387375956,0.5301437602932776,-8.78,4.28,-1.5,37.1875,-2.5625,-26.1875,1746516958.0113847
2535,-0.3981532356112064,-0.05126904677733343,0.5203262832508095,-8.47,4.3,-1.28,37.1875,-2.5625,-26.1875,1746516958.0286672
2536,-0.34797501961636945,-0.09817477042468103,0.4439681284760576,-8.26,4.42,-1.45,35.375,-2.5625,-25.25,1746516958.051779
2537,-0.29343348049154666,-0.02399827721492203,0.3981532356112064,-8.25,4.55,-1.31,35.375,-2.5625,-25.25,1746516958.0723217
2538,-0.2530727415391778,0.09053895494720585,0.385063266221249,-8.38,4.63,-1.34,34.6875,-3.0,-25.25,1746516958.0890257
2539,-0.26070855701665296,0.12980886311707826,0.358883327441334,-8.27,4.46,-1.35,34.6875,-3.0,-25.25,1746516958.1113331
2540,-0.2716168648416175,0.06217735460229799,0.32834006553143325,-8.290000000000001,4.47,-1.1500000000000001,34.6875,-3.0,-25.25,1746516958.1289454
2541,-0.23125612588924865,0.004363323129985824,0.3010692959690218,-8.040000000000001,4.66,-1.19,36.5,-4.75,-25.6875,1746516958.1507485
2542,-0.16580627893946132,0.0545415391248228,0.2792526803190927,-8.05,4.73,-1.22,36.5,-4.75,-25.6875,1746516958.1725352
2543,-0.11017390903214205,0.13526301702956053,0.16471544815696484,-8.02,4.76,-1.2,37.25,-3.375,-27.0,1746516958.1898727
2544,-0.07090400086226964,0.21162117180431245,0.17780541754692233,-8.51,4.74,-1.3,37.25,-3.375,-27.0,1746516958.2120867
2545,-0.038179077387375956,0.09926560120717749,0.2628902185816459,-8.6,4.89,-1.16,37.25,-3.375,-27.0,1746516958.2293634
2546,-0.011999138607461015,-0.022907446432425576,0.34033920413889424,-8.17,4.64,-1.1500000000000001,34.75,-4.75,-24.5,1746516958.2521963
2547,0.06981317007977318,-0.0719948316447661,0.2694352032766246,-8.38,4.73,-1.09,34.75,-4.75,-24.5,1746516958.2722988
2548,0.09817477042468103,-0.025089107997418487,0.26070855701665296,-8.16,4.97,-1.3,36.1875,-5.5625,-27.0,1746516958.2904582
2549,0.030543261909900768,-0.020725784867432664,0.21489366415180183,-7.99,5.04,-1.35,36.1875,-5.5625,-27.0,1746516958.3119822
2550,-0.05235987755982989,-0.07090400086226964,0.07090400086226964,-7.82,4.93,-1.32,35.5,-4.75,-24.5,1746516958.3309276
2551,-0.06872233929727672,-0.0719948316447661,-0.0818123086872342,-8.1,5.21,-1.22,35.5,-4.75,-24.5,1746516958.35218
2552,0.08617563181722002,0.002181661564992912,0.038179077387375956,-7.96,4.84,-1.09,35.5,-4.75,-24.5,1746516958.3729832
2553,0.20507618710933373,0.030543261909900768,0.006544984694978736,-8.01,4.89,-1.02,36.875,-5.5625,-25.25,1746516958.390639
2554,0.22362031041177347,0.10471975511965978,0.08399397025222712,-8.23,5.12,-1.37,36.875,-5.5625,-25.25,1746516958.4121788
2555,0.23343778745424157,0.07963064712224129,0.09817477042468103,-7.98,4.92,-1.4000000000000001,36.1875,-5.1875,-26.5625,1746516958.4306364
2556,0.19744037163185854,0.006544984694978736,0.07526732399225546,-8.46,5.44,-1.52,36.1875,-5.1875,-26.5625,1746516958.452086
2557,0.2596177262341565,0.07417649320975901,0.24434609527920614,-8.14,5.42,-1.53,36.1875,-5.1875,-26.5625,1746516958.4728181
2558,0.20943951023931956,0.09817477042468103,0.2977968036215325,-8.08,5.3500000000000005,-1.6500000000000001,34.0,-5.5625,-23.6875,1746516958.4910874
2559,0.11126473981463851,0.08508480103472356,0.31306843457648287,-8.69,5.63,-1.87,34.0,-5.5625,-23.6875,1746516958.5122194
2560,0.028361600344907856,0.12762720155208535,0.5934119456780721,-8.540000000000001,5.64,-1.71,35.5,-7.0625,-24.875,1746516958.5310671
2561,0.009817477042468103,0.08508480103472356,0.729765793490129,-7.67,5.62,-1.69,35.5,-7.0625,-24.875,1746516958.5522468
2562,-0.026179938779914945,-0.06326818538479445,0.5999569303730508,-7.61,5.69,-1.8,35.5,-7.0625,-24.875,1746516958.5729773
2563,-0.025089107997418487,-0.13744467859455345,0.4079707126536745,-7.63,5.97,-1.23,35.875,-8.5,-25.6875,1746516958.5914443
2564,0.04581489286485115,-0.07744898555724837,0.3948807432637171,-7.25,5.75,-1.68,35.875,-8.5,-25.6875,1746516958.6123512
2565,0.21598449493429828,0.1189005552921137,0.2923426497090502,-7.43,5.41,-1.69,35.0625,-7.6875,-25.6875,1746516958.6315165
2566,0.19744037163185854,0.15817046346198613,0.2694352032766246,-7.78,5.68,-1.99,35.0625,-7.6875,-25.6875,1746516958.652388
2567,-0.06981317007977318,0.025089107997418487,0.13962634015954636,-7.76,5.82,-1.71,35.0625,-7.6875,-25.6875,1746516958.672778
2568,-0.3141592653589793,-0.17562375598192942,0.08399397025222712,-8.06,5.97,-1.76,35.0625,-10.25,-25.25,1746516958.6917915
2569,-0.4690572364734761,-0.272707695624114,0.24980024919168842,-8.13,6.1000000000000005,-1.61,35.0625,-10.25,-25.25,1746516958.7122703
2570,-0.41015237421866746,-0.27379852640661045,0.3021601267515183,-7.8500000000000005,6.05,-1.02,33.25,-10.6875,-25.25,1746516958.7317433
2571,-0.18653206380689397,-0.24216443371421323,0.31525009614147576,-7.55,5.65,-1.1400000000000001,33.25,-10.6875,-25.25,1746516958.7522175
2572,-0.008726646259971648,-0.06217735460229799,0.25416357232167425,-7.57,5.63,-1.19,33.25,-10.6875,-25.25,1746516958.7732153
2573,0.017453292519943295,0.007635815477475192,0.2181661564992912,-7.23,5.45,-1.26,37.0,-10.25,-24.875,1746516958.7921338
2574,-0.04581489286485115,0.004363323129985824,-0.09381144729469522,-7.4,5.57,-1.33,37.0,-10.25,-24.875,1746516958.812492
2575,-0.05781403147231216,-0.019634954084936207,-0.20616701789183017,-7.71,5.54,-1.36,36.0,-10.25,-26.1875,1746516958.8321502
2576,-0.11562806294462433,-0.055632369907319255,-0.2628902185816459,-7.73,5.71,-1.12,36.0,-10.25,-26.1875,1746516958.8523564
2577,-0.11344640137963143,-0.11453723216212788,-0.3196134192714616,-7.67,5.74,-1.02,36.0,-10.25,-26.1875,1746516958.8730617
2578,-0.0916297857297023,-0.1439896632895322,-0.3567016658763411,-7.61,6.04,-1.28,33.0,-11.0625,-26.5625,1746516958.8924162
2579,0.014180800172453928,-0.2923426497090502,-0.5159629601208237,-7.95,5.89,-1.43,33.0,-11.0625,-26.5625,1746516958.9123778
2580,-0.007635815477475192,-0.3119776037939864,-0.41233403578366035,-8.19,5.8,-1.16,33.6875,-9.875,-25.25,1746516958.9322455
2581,-0.014180800172453928,-0.3097959422289935,-0.36324665057131983,-8.15,5.8100000000000005,-1.1,33.6875,-9.875,-25.25,1746516958.952317
2582,-0.039269908169872414,-0.30543261909900765,-0.2912518189265537,-7.890000000000001,5.74,-1.0,33.6875,-9.875,-25.25,1746516958.973757
2583,-0.08399397025222712,-0.2999784651865254,-0.2683443724941282,-7.3500000000000005,5.66,-0.98,36.0,-8.5,-27.0,1746516958.9932907
2584,-0.12435470920459599,-0.3327033886614191,-0.46469391334349025,-7.25,5.78,-0.93,36.0,-8.5,-27.0,1746516959.014307
2585,-0.10253809355466686,-0.23561944901923448,-0.753764070705051,-8.28,5.62,-1.12,35.1875,-7.375,-27.6875,1746516959.0333047
2586,-0.1265363707695889,-0.15817046346198613,-0.6643159465403417,-8.32,5.65,-0.84,35.1875,-7.375,-27.6875,1746516959.0548186
2587,-0.1712604328519436,-0.12544553998709243,-0.5399612373357457,-8.16,5.44,-0.79,35.1875,-7.375,-27.6875,1746516959.074096
2588,-0.2530727415391778,-0.2552544031041707,-0.5443245604657315,-8.13,5.3100000000000005,-0.9400000000000001,33.6875,-5.875,-27.25,1746516959.0942056
2589,-0.31634092692397225,-0.4526947747360292,-0.5966844380255614,-7.94,5.15,-0.84,33.6875,-5.875,-27.25,1746516959.1156147
2590,-0.4788747135159442,-0.6185010536754906,-0.7984881327874057,-8.31,5.25,-0.75,32.6875,-6.6875,-29.0,1746516959.1336548
2591,-0.5683228376806536,-0.5890486225480862,-0.8355763793922852,-8.71,5.37,-0.58,32.6875,-6.6875,-29.0,1746516959.155829
2592,-0.7155849933176751,-0.46469391334349025,-0.8006697943523987,-9.39,5.19,-0.08,32.6875,-6.6875,-29.0,1746516959.1745505
2593,-0.7046766854927106,-0.32179508083645453,-0.3425208657038872,-8.83,4.66,0.09,33.6875,-5.5625,-28.5625,1746516959.1954806
2594,-0.657770961845363,-0.2650718801466388,-0.15162547876700738,-8.14,4.18,0.14,33.6875,-5.5625,-28.5625,1746516959.2169008
2595,-0.6446809924554054,-0.32615840396644036,-0.3839724354387525,-8.25,4.22,0.19,34.375,-1.1875,-30.1875,1746516959.234127
2596,-0.6381360077604268,-0.3294308963139297,-0.4428772976935611,-8.540000000000001,4.28,0.5,34.375,-1.1875,-30.1875,1746516959.2571898
2597,-0.5737769915931359,-0.22689280275926285,-0.5268712679457882,-8.69,4.3500000000000005,0.63,34.375,-1.1875,-30.1875,1746516959.2749052
2598,-0.4046982203061852,-0.04036073895236887,-0.4286964975211072,-8.2,3.85,0.65,32.6875,0.0,-31.0,1746516959.2973378
2599,-0.1810779098944117,0.1090830782496456,-0.3785182815262702,-7.82,3.6,0.42,32.6875,0.0,-31.0,1746516959.3178635
2600,0.07417649320975901,0.1832595714594046,-0.5323254218582705,-8.18,3.77,0.7000000000000001,32.25,0.5625,-31.0,1746516959.3344479
2601,0.11562806294462433,0.19525871006686563,-0.545415391248228,-9.01,3.75,0.35000000000000003,32.25,0.5625,-31.0,1746516959.3577478
2602,0.15489797111449674,0.2301652951067522,-0.385063266221249,-8.92,3.73,0.48,32.25,0.5625,-31.0,1746516959.3753273
2603,0.21162117180431245,0.13853550937704992,-0.34033920413889424,-8.94,3.5,0.41000000000000003,32.25,1.75,-29.75,1746516959.3976152
2604,0.2083486794568231,-0.031634092692397225,-0.44505895925855404,-9.07,3.75,0.54,32.25,1.75,-29.75,1746516959.418216
2605,0.1341721862470641,-0.1407171709420428,-0.5148721293383273,-9.35,4.08,0.31,34.5,2.75,-29.75,1746516959.4347737
2606,0.03599741582238305,-0.13744467859455345,-0.4734205596034619,-9.63,4.21,-0.14,34.5,2.75,-29.75,1746516959.4581363
2607,-0.019634954084936207,-0.06654067773228381,-0.28688849579656794,-9.35,4.07,0.11,34.5,2.75,-29.75,1746516959.4754064
2608,-0.06763150851478027,-0.10362892433716332,-0.24107360293171676,-9.450000000000001,3.77,0.0,34.0625,4.0,-31.0,1746516959.4980035
2609,-0.18216874067690814,-0.22362031041177347,-0.2399827721492203,-9.540000000000001,3.8200000000000003,-0.05,34.0625,4.0,-31.0,1746516959.518307
2610,-0.32834006553143325,-0.2901609881440573,-0.10690141668465268,-8.97,3.71,-0.05,31.5625,3.5,-29.0,1746516959.5351067
2611,-0.5563236990731926,-0.3861540970037454,-0.1538071403320003,-9.01,3.8200000000000003,0.0,31.5625,3.5,-29.0,1746516959.5582035
2612,-0.7123125009701857,-0.3785182815262702,-0.16689710972195776,-9.01,3.98,0.6,31.5625,3.5,-29.0,1746516959.5758865
2613,-0.6566801310628665,-0.21707532571679475,-0.10362892433716332,-8.84,4.01,0.73,31.1875,3.1875,-30.5625,1746516959.598299
2614,-0.45814892864851153,0.00545415391248228,-0.09490227807719166,-8.84,3.89,0.8,31.1875,3.1875,-30.5625,1746516959.6183593
2615,-0.15817046346198613,0.2378011105842274,-0.08290313946973066,-9.25,3.73,0.68,32.25,5.75,-33.0625,1746516959.6355698
2616,0.1712604328519436,0.4756022211684548,0.009817477042468103,-9.16,3.4,0.58,32.25,5.75,-33.0625,1746516959.65812
2617,0.41560652813114973,0.5966844380255614,0.11453723216212788,-9.03,2.94,0.61,32.25,5.75,-33.0625,1746516959.6764495
2618,0.4243331743911214,0.5159629601208237,0.08072147790473774,-9.31,2.86,0.56,31.5625,6.75,-31.0,1746516959.698213
2619,0.20943951023931956,0.29670597283903605,0.09599310885968812,-9.33,2.92,0.54,31.5625,6.75,-31.0,1746516959.7183697
2620,-0.016362461737446838,0.016362461737446838,0.04690572364734761,-9.34,3.0700000000000003,0.55,32.375,5.6875,-30.6875,1746516959.7358277
2621,-0.11235557059713497,-0.16144295580947549,-0.02945243112740431,-9.540000000000001,3.48,0.52,32.375,5.6875,-30.6875,1746516959.7582862
2622,-0.01090830782496456,-0.10690141668465268,0.07090400086226964,-9.17,3.64,0.53,32.375,5.6875,-30.6875,1746516959.7763298
2623,0.16689710972195776,0.020725784867432664,0.09926560120717749,-9.06,3.64,0.44,31.5625,4.875,-30.25,1746516959.79894
2624,0.28034351110158917,0.16253378659197193,0.11999138607461016,-8.950000000000001,3.44,0.3,31.5625,4.875,-30.25,1746516959.818464
2625,0.2912518189265537,0.20398535632683726,0.10690141668465268,-8.89,3.35,0.35000000000000003,32.75,5.0,-29.0625,1746516959.8364575
2626,0.2279836335417593,0.1189005552921137,0.025089107997418487,-9.22,3.52,0.1,32.75,5.0,-29.0625,1746516959.8584788
2627,0.15162547876700738,0.016362461737446838,0.017453292519943295,-9.24,3.64,0.1,33.5,3.5625,-30.6875,1746516959.8775425
2628,0.10362892433716332,-0.05235987755982989,0.10035643198967395,-9.22,4.01,0.05,33.5,3.5625,-30.6875,1746516959.8984065
2629,0.11344640137963143,-0.04799655442984406,0.18871372537188688,-8.96,3.95,0.0,33.5,3.5625,-30.6875,1746516959.9184654
2630,0.16689710972195776,0.01090830782496456,0.2585268954516601,-8.92,3.9,0.03,33.5,5.375,-29.875,1746516959.9367335
2631,0.18871372537188688,0.08399397025222712,0.26725354171163174,-8.67,3.83,0.25,33.5,5.375,-29.875,1746516959.958261
2632,0.13308135546456762,0.09381144729469522,0.18544123302439752,-8.66,3.83,0.17,32.375,4.0,-29.0625,1746516959.9776719
2633,0.07635815477475191,0.07417649320975901,0.09817477042468103,-8.77,3.83,0.0,32.375,4.0,-29.0625,1746516959.9983687
2634,0.06763150851478027,0.08726646259971647,0.014180800172453928,-9.11,3.7600000000000002,0.12,32.375,4.0,-29.0625,1746516960.0185823
2635,0.11999138607461016,0.11344640137963143,-0.05235987755982989,-9.14,3.68,-0.03,32.375,1.375,-30.25,1746516960.037254
2636,0.1407171709420428,0.16798794050445423,0.02399827721492203,-9.05,3.75,0.23,32.375,1.375,-30.25,1746516960.0583699
2637,0.12435470920459599,0.1908953869368798,0.08617563181722002,-8.950000000000001,3.7,0.19,33.75,4.0,-29.0625,1746516960.0778546
2638,0.10035643198967395,0.14289883250703572,0.04690572364734761,-8.91,3.56,-0.15,33.75,4.0,-29.0625,1746516960.0986202
2639,0.06872233929727672,0.031634092692397225,-0.03599741582238305,-9.34,3.77,-0.27,33.75,4.0,-29.0625,1746516960.118575
2640,0.011999138607461015,-0.05345070834232634,-0.04363323129985824,-9.43,4.0600000000000005,0.0,33.75,4.0,-29.0625,1746516960.137638
2641,0.014180800172453928,-0.017453292519943295,0.09817477042468103,-9.05,4.0,0.0,33.75,4.0,-29.0625,1746516960.1586194
2642,0.07308566242726255,0.06544984694978735,0.1810779098944117,-8.8,3.7600000000000002,-0.04,32.375,2.375,-29.875,1746516960.178348
2643,0.1832595714594046,0.1712604328519436,0.19744037163185854,-8.51,3.46,-0.2,32.375,2.375,-29.875,1746516960.1984398
2644,0.2301652951067522,0.15162547876700738,0.08072147790473774,-8.88,3.7,-0.11,32.375,2.375,-29.875,1746516960.2185757
2645,0.23671027980173096,0.1461713248545251,0.055632369907319255,-9.03,3.96,-0.2,32.75,2.5,-29.0625,1746516960.237876
2646,0.2181661564992912,0.17016960206944712,0.16144295580947549,-8.91,3.94,-0.18,32.75,2.5,-29.0625,1746516960.2583046
2647,0.24870941840919197,0.19853120241435498,0.19853120241435498,-8.78,3.73,-0.28,35.25,2.0,-28.1875,1746516960.2806349
2648,0.3010692959690218,0.25416357232167425,0.23671027980173096,-8.68,3.75,-0.25,35.25,2.0,-28.1875,1746516960.3001819
2649,0.32288591161895097,0.24652775684419906,0.20180369476184434,-8.86,3.94,-0.38,35.25,2.0,-28.1875,1746516960.3202145
2650,0.3141592653589793,0.2083486794568231,0.24107360293171676,-8.82,4.18,-0.5,35.6875,0.875,-28.6875,1746516960.3403063
2651,0.3108867730114899,0.18980455615438332,0.2825251726665821,-8.59,4.22,-0.64,35.6875,0.875,-28.6875,1746516960.3625195
2652,0.3119776037939864,0.18762289458939044,0.2007128639793479,-8.66,4.26,-0.62,33.75,0.5625,-29.0625,1746516960.3805223
2653,0.2977968036215325,0.15707963267948966,0.09817477042468103,-9.08,4.36,-0.81,33.75,0.5625,-29.0625,1746516960.4020565
2654,0.2301652951067522,0.13308135546456762,0.17016960206944712,-9.22,4.64,-0.9,33.75,0.5625,-29.0625,1746516960.4206452
2655,0.11671889372712078,0.10690141668465268,0.3327033886614191,-8.85,4.64,-0.9,33.0625,0.5625,-26.1875,1746516960.442194
2656,0.0272707695624114,0.055632369907319255,0.2945243112740431,-8.16,4.42,-0.89,33.0625,0.5625,-26.1875,1746516960.4636703
2657,-0.020725784867432664,-0.02945243112740431,0.050178215994836975,-8.63,4.46,-0.77,35.25,-1.25,-28.0625,1746516960.4809837
2658,-0.04036073895236887,-0.003272492347489368,-0.00545415391248228,-8.71,4.5,-0.74,35.25,-1.25,-28.0625,1746516960.5034728
2659,-0.037088246604879506,0.07090400086226964,0.055632369907319255,-8.73,4.44,-0.79,35.25,-1.25,-28.0625,1746516960.5208654
2660,-0.06544984694978735,0.1090830782496456,0.11453723216212788,-8.61,4.3500000000000005,-0.8,36.0625,-2.375,-27.25,1746516960.5410993
2661,-0.0818123086872342,0.06981317007977318,0.06981317007977318,-8.64,4.22,-0.78,36.0625,-2.375,-27.25,1746516960.5636048
2662,-0.04145156973486533,0.04363323129985824,0.04254240051736178,-8.77,4.23,-0.71,34.5625,-1.5625,-27.375,1746516960.5812662
2663,-0.003272492347489368,0.07963064712224129,0.09053895494720585,-8.71,4.32,-0.77,34.5625,-1.5625,-27.375,1746516960.6034603
2664,-0.016362461737446838,0.10471975511965978,0.1407171709420428,-8.61,4.32,-0.75,34.5625,-1.5625,-27.375,1746516960.6212265
2665,-0.03599741582238305,0.07853981633974483,0.13962634015954636,-8.36,4.3100000000000005,-0.81,34.5625,-2.0,-27.75,1746516960.6420934
2666,-0.028361600344907856,0.014180800172453928,0.03381575425739013,-8.72,4.36,-0.86,34.5625,-2.0,-27.75,1746516960.6650348
2667,0.026179938779914945,0.016362461737446838,0.019634954084936207,-8.870000000000001,4.51,-0.76,36.0625,-0.875,-26.5625,1746516960.6815906
2668,0.08617563181722002,0.1341721862470641,0.17671458676442586,-8.72,4.41,-0.86,36.0625,-0.875,-26.5625,1746516960.704652
2669,0.04690572364734761,0.15926129424448257,0.2519819107566813,-8.67,4.37,-0.8300000000000001,36.0625,-0.875,-26.5625,1746516960.7215562
2670,0.009817477042468103,0.08835729338221293,0.24652775684419906,-8.33,4.36,-0.8200000000000001,35.25,-2.0,-27.0,1746516960.7438257
2671,0.04581489286485115,-0.04254240051736178,0.09490227807719166,-8.5,4.37,-0.85,35.25,-2.0,-27.0,1746516960.7652502
2672,0.1265363707695889,-0.04690572364734761,0.044724062082354694,-8.85,4.66,-1.0,35.0,-2.6875,-27.75,1746516960.782102
2673,0.17780541754692233,0.08835729338221293,0.20943951023931956,-8.82,4.82,-1.03,35.0,-2.6875,-27.75,1746516960.8051054
2674,0.12871803233458182,0.17235126363444003,0.3436116964863836,-8.6,4.73,-1.05,35.0,-2.6875,-27.75,1746516960.822092
2675,0.03599741582238305,0.07963064712224129,0.3436116964863836,-8.27,4.66,-0.9500000000000001,33.75,-2.375,-25.6875,1746516960.8451064
2676,0.0,-0.0818123086872342,0.19525871006686563,-8.2,4.69,-0.93,33.75,-2.375,-25.6875,1746516960.8651354
2677,0.028361600344907856,-0.10690141668465268,0.05999569303730508,-8.51,5.07,-1.03,34.5625,-4.1875,-25.6875,1746516960.8859043
2678,0.06326818538479445,0.04908738521234052,0.06544984694978735,-9.01,5.12,-1.04,34.5625,-4.1875,-25.6875,1746516960.9062634
2679,0.07744898555724837,0.1734420944169365,0.08835729338221293,-8.96,4.84,-1.1500000000000001,35.6875,-3.75,-27.375,1746516960.925537
2680,0.11344640137963143,0.20180369476184434,0.23561944901923448,-8.19,4.54,-1.07,35.6875,-3.75,-27.375,1746516960.9463024
2681,0.009817477042468103,-0.06872233929727672,0.10690141668465268,-8.11,4.63,-1.04,35.6875,-3.75,-27.375,1746516960.9686027
2682,-0.05781403147231216,-0.16144295580947549,0.02399827721492203,-8.48,4.88,-1.03,35.25,-3.5,-27.75,1746516960.9858491
2683,-0.10581058590215622,-0.14180800172453928,0.12217304763960307,-8.35,4.8500000000000005,-0.9400000000000001,35.25,-3.5,-27.75,1746516961.0063188
2684,-0.08072147790473774,-0.1090830782496456,0.15817046346198613,-7.75,4.7,-0.85,34.5625,-5.25,-26.5625,1746516961.0257733
2685,-0.02399827721492203,-0.06763150851478027,0.026179938779914945,-7.53,4.67,-0.93,34.5625,-5.25,-26.5625,1746516961.0462108
2686,-0.008726646259971648,-0.05781403147231216,-0.1810779098944117,-7.88,4.74,-0.93,34.5625,-5.25,-26.5625,1746516961.0667348
2687,0.004363323129985824,-0.01090830782496456,-0.2879793265790644,-8.870000000000001,5.0,-0.96,35.0,-4.875,-27.375,1746516961.08625
2688,0.05672320068981571,0.08508480103472356,-0.14726215563702155,-9.15,4.99,-1.01,35.0,-4.875,-27.375,1746516961.1064146
2689,0.10253809355466686,0.10799224746714914,0.09599310885968812,-8.5,4.84,-0.9500000000000001,35.25,-2.6875,-25.25,1746516961.1261642
2690,0.05890486225480862,-0.015271630954950384,0.05235987755982989,-8.35,4.88,-1.11,35.25,-2.6875,-25.25,1746516961.1462846
2691,-0.032724923474893676,-0.09817477042468103,-0.038179077387375956,-8.51,5.01,-1.09,35.25,-2.6875,-25.25,1746516961.166727
2692,-0.08944812416470939,-0.08290313946973066,-0.02181661564992912,-8.68,5.08,-1.1,36.0625,-4.1875,-27.375,1746516961.1863682
