Packet number,Gyroscope X (deg/s),Gyroscope Y (deg/s),Gyroscope Z (deg/s),Accelerometer X (g),Accelerometer Y (g),Accelerometer Z (g),Magnetometer X (microteslas),Magnetometer Y (microteslas),Magnetometer Z (microteslas),Timestamp
0,-0.04799655442984406,0.05890486225480862,-0.10253809355466686,-0.06,0.11,9.73,71.0,-38.0625,-68.875,1745374413.4578555
1,-0.06872233929727672,-0.06872233929727672,-0.1189005552921137,0.14,-0.18,9.700000000000001,70.25,-38.875,-68.875,1745374413.474638
2,0.003272492347489368,0.0916297857297023,-0.09817477042468103,-0.9,0.09,9.74,70.25,-38.875,-68.875,1745374413.4957235
3,0.0719948316447661,-0.001090830782496456,-0.038179077387375956,-1.18,0.09,9.700000000000001,67.375,-36.6875,-67.6875,1745374413.516208
4,0.06872233929727672,0.031634092692397225,-0.07526732399225546,0.38,0.05,9.52,67.375,-36.6875,-67.6875,1745374413.5356104
5,0.020725784867432664,-0.08399397025222712,0.008726646259971648,-0.6,-0.05,10.4,67.375,-36.6875,-67.6875,1745374413.5580075
6,0.050178215994836975,0.11671889372712078,-0.04799655442984406,-1.11,0.07,9.93,69.875,-36.6875,-69.25,1745374413.5751424
7,0.04908738521234052,-0.019634954084936207,0.0,-0.4,0.01,9.81,69.875,-36.6875,-69.25,1745374413.59557
8,0.0916297857297023,0.019634954084936207,-0.03490658503988659,0.13,0.0,9.68,70.25,-38.0625,-69.6875,1745374413.6149545
9,0.08508480103472356,0.022907446432425576,-0.06872233929727672,-0.87,0.08,10.1,70.25,-38.0625,-69.6875,1745374413.635711
10,0.0818123086872342,-0.016362461737446838,-0.04363323129985824,0.0,0.18,9.72,70.25,-38.0625,-69.6875,1745374413.655961
11,0.08399397025222712,-0.09490227807719166,-0.002181661564992912,-0.6900000000000001,0.3,9.92,68.75,-37.75,-66.875,1745374413.6754935
12,0.04254240051736178,-0.031634092692397225,-0.03599741582238305,-0.65,0.28,9.75,68.75,-37.75,-66.875,1745374413.6956296
13,0.011999138607461015,-0.05345070834232634,-0.04799655442984406,-0.33,0.15,9.9,69.5625,-37.0625,-68.875,1745374413.7152548
14,-0.03381575425739013,0.008726646259971648,-0.07090400086226964,-0.29,0.06,9.76,69.5625,-37.0625,-68.875,1745374413.735832
15,-0.003272492347489368,0.018544123302439753,-0.044724062082354694,-0.21,0.12,9.91,69.5625,-37.0625,-68.875,1745374413.7561948
16,0.011999138607461015,0.013089969389957472,-0.037088246604879506,-0.25,0.15,9.88,69.875,-37.75,-69.25,1745374413.7757282
17,0.026179938779914945,-0.014180800172453928,-0.04690572364734761,-0.58,0.28,9.72,69.875,-37.75,-69.25,1745374413.7958956
18,0.017453292519943295,-0.020725784867432664,-0.05235987755982989,-0.19,0.19,9.74,67.6875,-37.75,-68.875,1745374413.8157182
19,-0.004363323129985824,0.05126904677733343,-0.03490658503988659,0.36,0.22,9.77,67.6875,-37.75,-68.875,1745374413.8357525
20,-0.06544984694978735,-0.0272707695624114,-0.019634954084936207,1.78,0.15,9.74,67.6875,-37.75,-68.875,1745374413.8562348
21,-0.05781403147231216,-0.1189005552921137,0.004363323129985824,1.1400000000000001,0.02,9.620000000000001,69.1875,-36.0,-68.5,1745374413.8765101
22,-0.002181661564992912,-0.22580197197676638,0.06981317007977318,-1.12,0.06,9.99,69.1875,-36.0,-68.5,1745374413.8959467
23,0.007635815477475192,-0.09926560120717749,-0.008726646259971648,-1.6600000000000001,0.15,9.99,69.875,-36.25,-70.0625,1745374413.9158409
24,-0.04908738521234052,0.11562806294462433,-0.13962634015954636,-0.03,0.08,9.540000000000001,69.875,-36.25,-70.0625,1745374413.935998
25,0.032724923474893676,-0.10471975511965978,0.04145156973486533,-3.25,0.17,10.17,69.875,-36.25,-70.0625,1745374413.9567952
26,0.16907877128695067,0.09708393964218458,0.03599741582238305,1.1400000000000001,0.27,9.39,68.0625,-36.6875,-70.0625,1745374413.9767902
27,0.12544553998709243,-0.33052172709642613,0.07308566242726255,-3.54,0.09,10.84,68.0625,-36.6875,-70.0625,1745374413.9972107
28,0.04254240051736178,0.04690572364734761,-0.16144295580947549,-1.12,0.15,9.97,67.375,-36.25,-67.6875,1745374414.0163376
29,0.0545415391248228,0.04036073895236887,-0.18980455615438332,-0.46,0.07,9.78,67.375,-36.25,-67.6875,1745374414.036397
30,0.14180800172453928,0.0,-0.16689710972195776,-0.14,0.14,9.81,67.375,-36.25,-67.6875,1745374414.056857
31,0.14289883250703572,-0.07744898555724837,-0.20725784867432664,-0.47000000000000003,0.23,9.99,68.75,-36.0,-71.25,1745374414.077776
32,0.15162547876700738,-0.08726646259971647,-0.20943951023931956,0.32,0.26,9.5,68.75,-36.0,-71.25,1745374414.098367
33,0.136353847812057,-0.1090830782496456,-0.16035212502697901,-0.2,0.53,9.69,67.6875,-36.25,-71.25,1745374414.1167397
34,0.05126904677733343,-0.07417649320975901,-0.055632369907319255,-0.39,0.52,9.790000000000001,67.6875,-36.25,-71.25,1745374414.1377382
35,-0.09490227807719166,-0.016362461737446838,-0.05672320068981571,-0.19,0.45,9.89,67.6875,-36.25,-71.25,1745374414.157395
36,-0.16580627893946132,-0.037088246604879506,-0.031634092692397225,-0.08,0.27,9.82,67.6875,-36.0,-67.6875,1745374414.1839406
37,-0.16907877128695067,-0.04799655442984406,-0.004363323129985824,-0.07,0.2,9.85,67.6875,-36.0,-67.6875,1745374414.203557
38,-0.12544553998709243,-0.03381575425739013,0.003272492347489368,-0.03,0.15,9.71,69.1875,-35.5625,-70.1875,1745374414.220467
39,-0.07417649320975901,-0.004363323129985824,0.013089969389957472,-0.03,0.23,9.82,69.1875,-35.5625,-70.1875,1745374414.2429156
40,-0.08944812416470939,0.016362461737446838,0.006544984694978736,-0.07,0.21,9.84,69.1875,-35.5625,-70.1875,1745374414.2604187
41,-0.10362892433716332,0.025089107997418487,0.001090830782496456,-0.08,0.11,9.84,67.375,-34.875,-70.875,1745374414.2829585
42,-0.08726646259971647,0.0272707695624114,0.004363323129985824,-0.14,0.11,9.84,67.375,-34.875,-70.875,1745374414.3037457
43,-0.050178215994836975,0.025089107997418487,-0.003272492347489368,-0.19,0.14,9.85,67.375,-34.875,-69.25,1745374414.3204808
44,-0.018544123302439753,-0.003272492347489368,-0.00545415391248228,-0.13,0.15,9.870000000000001,67.375,-34.875,-69.25,1745374414.3431103
45,0.003272492347489368,-0.013089969389957472,-0.002181661564992912,-0.1,0.23,9.84,68.0625,-34.0625,-69.6875,1745374414.362583
46,-0.04363323129985824,-0.022907446432425576,0.0,-0.09,0.21,9.82,68.0625,-34.0625,-69.6875,1745374414.3832612
47,-0.11453723216212788,-0.015271630954950384,-0.004363323129985824,-0.09,0.17,9.84,68.0625,-34.0625,-69.6875,1745374414.4037948
48,-0.15926129424448257,-0.011999138607461015,-0.009817477042468103,-0.08,0.04,9.870000000000001,68.75,-36.0,-72.0625,1745374414.420951
49,-0.1341721862470641,-0.01090830782496456,-0.01090830782496456,-0.06,0.0,9.86,68.75,-36.0,-72.0625,1745374414.4433303
50,-0.06872233929727672,-0.011999138607461015,-0.006544984694978736,-0.03,0.0,9.78,68.75,-36.0,-72.0625,1745374414.4616084
51,-0.004363323129985824,0.004363323129985824,-0.008726646259971648,-0.04,0.04,9.82,67.375,-34.5,-70.0625,1745374414.4846175
52,0.039269908169872414,0.02399827721492203,-0.013089969389957472,-0.05,0.0,9.89,67.375,-34.5,-70.0625,1745374414.5039818
53,0.06326818538479445,0.022907446432425576,-0.016362461737446838,-0.03,0.01,9.870000000000001,67.6875,-34.0625,-71.25,1745374414.5226018
54,0.06872233929727672,0.009817477042468103,-0.004363323129985824,-0.12,0.07,9.85,67.6875,-34.0625,-71.25,1745374414.5436757
55,0.055632369907319255,0.01090830782496456,-0.004363323129985824,-0.12,0.05,9.76,69.875,-35.25,-71.6875,1745374414.5624638
56,0.09708393964218458,0.0272707695624114,0.002181661564992912,-0.08,0.23,9.83,69.875,-35.25,-71.6875,1745374414.585854
57,0.08617563181722002,0.02399827721492203,0.0,-0.14,0.23,9.89,69.875,-35.25,-71.6875,1745374414.605313
58,0.009817477042468103,0.00545415391248228,-0.008726646259971648,-0.17,0.12,9.86,67.6875,-35.25,-69.25,1745374414.627308
59,0.00545415391248228,-0.022907446432425576,-0.00545415391248228,-0.13,0.17,9.89,67.6875,-35.25,-69.25,1745374414.6448097
60,-0.007635815477475192,-0.02945243112740431,-0.003272492347489368,-0.05,0.13,9.83,69.1875,-34.0625,-71.25,1745374414.6645484
61,-0.05345070834232634,-0.05126904677733343,-0.001090830782496456,-0.05,0.12,9.78,69.1875,-34.0625,-71.25,1745374414.6850984
62,-0.02945243112740431,-0.032724923474893676,-0.006544984694978736,-0.06,0.04,9.700000000000001,69.1875,-34.0625,-71.25,1745374414.7058773
63,0.050178215994836975,0.002181661564992912,-0.008726646259971648,-0.03,0.12,9.83,69.1875,-34.5,-71.375,1745374414.7251706
64,0.08944812416470939,0.03599741582238305,-0.007635815477475192,-0.06,0.14,9.89,69.1875,-34.5,-71.375,1745374414.7451057
65,0.07417649320975901,0.04254240051736178,-0.011999138607461015,-0.11,0.11,9.8,67.375,-34.875,-69.25,1745374414.7650826
66,0.07635815477475191,0.039269908169872414,-0.007635815477475192,-0.15,0.23,9.84,67.375,-34.875,-69.25,1745374414.7851138
67,0.04036073895236887,0.008726646259971648,-0.004363323129985824,-0.17,0.32,9.84,67.375,-34.875,-69.25,1745374414.8096192
68,-0.039269908169872414,-0.02399827721492203,-0.004363323129985824,-0.11,0.28,9.92,68.0625,-33.75,-69.25,1745374414.8315113
69,-0.09490227807719166,-0.03381575425739013,0.00545415391248228,-0.03,0.22,9.92,68.0625,-33.75,-69.25,1745374414.8513412
70,-0.1505346479845109,-0.039269908169872414,0.004363323129985824,-0.1,0.15,9.83,69.1875,-34.5,-72.5,1745374414.8688245
71,-0.18544123302439752,-0.044724062082354694,-0.002181661564992912,-0.15,0.08,9.83,69.1875,-34.5,-72.5,1745374414.8914938
72,-0.19634954084936207,-0.06981317007977318,-0.007635815477475192,-0.07,-0.06,9.94,69.1875,-34.5,-72.5,1745374414.9085627
73,-0.14180800172453928,-0.09053895494720585,-0.00545415391248228,0.0,-0.12,9.83,68.0625,-34.5,-69.6875,1745374414.9308796
74,-0.018544123302439753,-0.08399397025222712,0.013089969389957472,0.0,0.01,9.700000000000001,68.0625,-34.5,-69.6875,1745374414.9516501
75,0.020725784867432664,-0.025089107997418487,0.022907446432425576,0.04,0.15,9.69,67.6875,-33.0625,-70.0625,1745374414.969111
76,-0.03381575425739013,-0.004363323129985824,0.008726646259971648,0.0,0.11,9.85,67.6875,-33.0625,-70.0625,1745374414.9924285
77,-0.12762720155208535,0.013089969389957472,-0.003272492347489368,0.0,0.0,9.84,67.6875,-33.0625,-70.0625,1745374415.0089657
78,-0.12980886311707826,0.0,0.003272492347489368,-0.11,-0.04,9.85,68.75,-34.0625,-72.875,1745374415.0312524
79,-0.10690141668465268,-0.037088246604879506,0.008726646259971648,-0.14,0.02,9.8,68.75,-34.0625,-72.875,1745374415.052095
80,-0.1189005552921137,-0.022907446432425576,0.032724923474893676,0.04,-0.06,9.72,67.0,-33.75,-70.875,1745374415.0694077
81,-0.136353847812057,-0.003272492347489368,0.017453292519943295,0.08,-0.16,9.9,67.0,-33.75,-70.875,1745374415.0924685
82,-0.08726646259971647,0.015271630954950384,-0.004363323129985824,0.02,-0.18,9.91,67.0,-33.75,-70.875,1745374415.1093442
83,-0.04145156973486533,0.006544984694978736,-0.002181661564992912,-0.02,-0.15,9.870000000000001,67.6875,-32.6875,-71.6875,1745374415.1321344
84,0.02399827721492203,0.003272492347489368,-0.004363323129985824,-0.03,-0.17,9.76,67.6875,-32.6875,-71.6875,1745374415.1525834
85,0.07526732399225546,0.0272707695624114,-0.006544984694978736,-0.01,-0.1,9.85,69.5625,-33.375,-73.375,1745374415.1709237
86,0.08617563181722002,0.03381575425739013,-0.006544984694978736,-0.01,-0.03,9.790000000000001,69.5625,-33.375,-73.375,1745374415.1928637
87,0.09708393964218458,0.02945243112740431,-0.008726646259971648,-0.05,0.0,9.83,69.5625,-33.375,-73.375,1745374415.2114513
88,0.05999569303730508,0.018544123302439753,-0.01090830782496456,-0.09,0.03,9.83,67.6875,-33.375,-71.375,1745374415.2326806
89,-0.01090830782496456,0.003272492347489368,-0.011999138607461015,-0.02,0.0,10.07,67.6875,-33.375,-71.375,1745374415.2527473
90,-0.04908738521234052,-0.022907446432425576,-0.011999138607461015,-0.02,-0.1,9.790000000000001,67.6875,-33.0625,-70.0625,1745374415.2717228
91,-0.015271630954950384,-0.020725784867432664,0.002181661564992912,-0.32,0.09,9.8,67.6875,-33.0625,-70.0625,1745374415.2926304
92,-0.013089969389957472,0.02945243112740431,0.016362461737446838,0.31,-0.03,9.68,69.875,-34.0625,-72.5,1745374415.3119354
93,-0.08399397025222712,-0.013089969389957472,-0.01090830782496456,-0.03,-0.09,9.88,69.875,-34.0625,-72.5,1745374415.3331926
94,-0.09708393964218458,-0.02181661564992912,-0.02399827721492203,0.01,-0.18,9.84,69.875,-34.0625,-72.5,1745374415.3532586
95,-0.018544123302439753,-0.02181661564992912,-0.007635815477475192,-0.01,-0.08,9.83,68.0625,-34.5,-71.375,1745374415.3734517
96,0.007635815477475192,-0.022907446432425576,-0.00545415391248228,-0.07,-0.1,9.82,68.0625,-34.5,-71.375,1745374415.3932781
97,0.007635815477475192,-0.0545415391248228,0.0,-0.65,0.04,9.85,67.375,-33.0625,-71.6875,1745374415.413565
98,0.028361600344907856,0.044724062082354694,0.009817477042468103,0.48,-0.15,9.66,67.375,-33.0625,-71.6875,1745374415.4334729
99,0.003272492347489368,-0.03381575425739013,-0.002181661564992912,-0.5700000000000001,0.12,9.85,67.375,-33.0625,-71.6875,1745374415.4533854
100,-0.02399827721492203,0.07744898555724837,0.003272492347489368,-0.01,-0.09,9.790000000000001,69.1875,-33.0625,-72.875,1745374415.472851
101,-0.06435901616729091,0.022907446432425576,-0.013089969389957472,0.05,0.02,10.11,69.1875,-33.0625,-72.875,1745374415.4933553
102,-0.1439896632895322,0.19744037163185854,-0.06217735460229799,-0.25,-0.21,9.59,68.375,-33.75,-71.375,1745374415.513237
103,-0.18653206380689397,0.13199052468207118,-0.055632369907319255,0.25,-0.28,10.02,68.375,-33.75,-71.375,1745374415.533652
104,-0.05890486225480862,0.19198621771937624,-0.04036073895236887,-0.15,-0.33,9.89,68.375,-33.75,-71.375,1745374415.553774
105,0.061086523819801536,0.10581058590215622,-0.0272707695624114,-0.12,-0.25,9.92,68.0625,-32.6875,-71.375,1745374415.5731673
106,0.21925698728178766,0.07853981633974483,-0.01090830782496456,-0.2,-0.11,9.76,68.0625,-32.6875,-71.375,1745374415.593667
107,0.22689280275926285,0.0719948316447661,-0.014180800172453928,-0.12,-0.02,9.9,70.25,-32.25,-72.5,1745374415.6140714
108,0.1461713248545251,0.10144726277217041,-0.0272707695624114,-0.11,0.04,9.92,70.25,-32.25,-72.5,1745374415.6338196
109,0.08726646259971647,0.09708393964218458,-0.02181661564992912,-0.18,-0.02,9.870000000000001,70.25,-32.25,-72.5,1745374415.6539545
110,0.0719948316447661,0.09926560120717749,-0.017453292519943295,-0.24,0.0,9.76,69.1875,-34.0625,-70.5,1745374415.6737316
111,-0.018544123302439753,0.09708393964218458,-0.006544984694978736,-0.26,0.12,10.08,69.1875,-34.0625,-70.5,1745374415.6943457
112,-0.11344640137963143,0.12217304763960307,-0.013089969389957472,-0.21,0.07,9.97,69.5625,-33.75,-68.875,1745374415.7144575
113,-0.18871372537188688,0.13744467859455345,-0.019634954084936207,-0.22,-0.01,9.83,69.5625,-33.75,-68.875,1745374415.7339554
114,-0.2083486794568231,0.17016960206944712,-0.028361600344907856,-0.34,-0.07,9.67,69.5625,-33.75,-68.875,1745374415.7542043
115,-0.17998707911191522,0.14726215563702155,-0.02945243112740431,-0.37,-0.16,9.88,72.0625,-33.0625,-71.6875,1745374415.774042
116,-0.08726646259971647,0.10144726277217041,-0.038179077387375956,-0.34,-0.26,9.91,72.0625,-33.0625,-71.6875,1745374415.7940562
117,0.017453292519943295,-0.05781403147231216,-0.001090830782496456,-0.08,-0.18,9.540000000000001,70.25,-32.6875,-70.0625,1745374415.814469
118,0.0916297857297023,-0.05345070834232634,0.044724062082354694,-0.32,-0.18,9.93,70.25,-32.6875,-70.0625,1745374415.834003
119,0.11671889372712078,-0.004363323129985824,0.05672320068981571,0.0,-0.16,9.66,70.25,-32.6875,-70.0625,1745374415.854208
120,0.08835729338221293,-0.009817477042468103,0.06326818538479445,-0.01,-0.13,9.85,69.5625,-32.25,-68.875,1745374415.8746407
121,0.04799655442984406,-0.009817477042468103,0.0545415391248228,0.1,0.0,9.8,69.5625,-32.25,-68.875,1745374415.8946826
122,0.04799655442984406,-0.04908738521234052,0.05235987755982989,0.73,0.07,9.77,72.0625,-32.6875,-70.875,1745374415.9152043
123,0.037088246604879506,-0.22907446432425577,0.10253809355466686,0.39,0.19,9.61,72.0625,-32.6875,-70.875,1745374415.934571
124,-0.004363323129985824,0.03599741582238305,-0.02399827721492203,0.58,-0.21,9.96,72.0625,-32.6875,-70.875,1745374415.9546337
125,-0.0818123086872342,-0.05345070834232634,-0.032724923474893676,0.22,-0.04,9.700000000000001,69.5625,-34.5,-70.0625,1745374415.9749048
126,-0.032724923474893676,-0.025089107997418487,-0.004363323129985824,-0.02,-0.14,9.83,69.5625,-34.5,-70.0625,1745374415.9961874
127,0.014180800172453928,0.00545415391248228,0.05126904677733343,1.33,-0.15,9.64,69.1875,-33.375,-70.5,1745374416.0151
128,0.06654067773228381,-0.13526301702956053,0.12326387842209953,-0.77,0.48,9.73,69.1875,-33.375,-70.5,1745374416.036003
129,0.10690141668465268,0.038179077387375956,0.08290313946973066,-0.16,0.0,9.59,69.1875,-33.375,-70.5,1745374416.055215
130,0.07090400086226964,-0.014180800172453928,0.04799655442984406,-0.63,-0.05,10.07,69.5625,-33.0625,-71.6875,1745374416.0781772
131,0.050178215994836975,0.07308566242726255,0.0,-0.8300000000000001,-0.34,9.790000000000001,69.5625,-33.0625,-71.6875,1745374416.0980105
132,-0.014180800172453928,0.018544123302439753,-0.02181661564992912,0.18,-0.12,9.61,67.6875,-34.0625,-71.6875,1745374416.1191769
133,0.008726646259971648,0.008726646259971648,-0.1407171709420428,-0.53,-0.1,9.91,67.6875,-34.0625,-71.6875,1745374416.135956
134,0.07853981633974483,-0.0545415391248228,-0.08726646259971647,-0.55,-0.22,9.9,67.6875,-34.0625,-71.6875,1745374416.155632
135,0.11780972450961724,-0.07744898555724837,-0.01090830782496456,-0.61,0.0,9.870000000000001,65.1875,-33.375,-71.375,1745374416.1777852
136,0.12435470920459599,-0.0272707695624114,0.011999138607461015,-0.41000000000000003,-0.03,9.700000000000001,65.1875,-33.375,-71.375,1745374416.1982567
137,0.10144726277217041,-0.017453292519943295,-0.022907446432425576,-0.58,0.22,9.9,67.6875,-33.0625,-72.875,1745374416.216838
138,0.10362892433716332,0.0272707695624114,-0.07417649320975901,-0.1,-0.04,9.89,67.6875,-33.0625,-72.875,1745374416.2372947
139,0.07526732399225546,-0.05235987755982989,-0.061086523819801536,-0.6,0.07,9.870000000000001,67.6875,-33.0625,-72.875,1745374416.2562582
140,0.09926560120717749,0.008726646259971648,-0.004363323129985824,-0.39,0.16,9.57,66.25,-33.375,-72.1875,1745374416.2779171
141,0.09490227807719166,0.05126904677733343,0.06763150851478027,-0.45,0.14,9.8,66.25,-33.375,-72.1875,1745374416.299084
142,0.0719948316447661,0.05345070834232634,0.00545415391248228,0.43,0.42,9.82,64.75,-33.0625,-71.6875,1745374416.3173027
143,0.07417649320975901,-0.12871803233458182,-0.06654067773228381,-1.0,-0.02,10.05,64.75,-33.0625,-71.6875,1745374416.339515
144,0.04690572364734761,0.01090830782496456,-0.020725784867432664,-0.22,0.11,9.94,64.75,-33.0625,-71.6875,1745374416.356808
145,0.017453292519943295,-0.06763150851478027,0.03381575425739013,-0.33,0.17,9.88,65.875,-32.6875,-73.6875,1745374416.3808079
146,-0.004363323129985824,0.007635815477475192,0.008726646259971648,-0.32,0.25,10.0,65.875,-32.6875,-73.6875,1745374416.400498
147,-0.022907446432425576,0.013089969389957472,-0.032724923474893676,-0.3,0.06,9.65,63.6875,-34.0625,-72.5,1745374416.4172676
148,0.050178215994836975,-0.0545415391248228,0.030543261909900768,-0.18,0.06,9.91,63.6875,-34.0625,-72.5,1745374416.4398868
149,0.11562806294462433,-0.04363323129985824,0.06217735460229799,-0.47000000000000003,0.16,9.96,63.6875,-34.0625,-72.5,1745374416.4570749
150,0.05890486225480862,0.015271630954950384,0.02945243112740431,0.53,0.25,9.75,61.875,-33.75,-72.5,1745374416.4808266
151,-0.02181661564992912,-0.05235987755982989,-0.02945243112740431,-0.71,0.3,10.200000000000001,61.875,-33.75,-72.5,1745374416.5008426
152,-0.044724062082354694,0.044724062082354694,-0.0818123086872342,-0.44,0.21,9.700000000000001,65.1875,-33.0625,-73.6875,1745374416.5173779
153,-0.037088246604879506,0.05781403147231216,-0.09053895494720585,0.15,-0.13,10.17,65.1875,-33.0625,-73.6875,1745374416.5404472
154,0.007635815477475192,-0.0818123086872342,-0.025089107997418487,-0.71,0.08,10.16,65.1875,-33.0625,-73.6875,1745374416.5574946
155,0.04254240051736178,-0.07635815477475191,0.08290313946973066,-0.48,0.4,9.56,63.0,-33.375,-73.6875,1745374416.5810473
156,0.03490658503988659,0.12871803233458182,-0.020725784867432664,0.33,0.36,9.75,63.0,-33.375,-73.6875,1745374416.6007762
157,-0.04799655442984406,0.0272707695624114,-0.09490227807719166,0.76,0.49,9.700000000000001,60.5,-33.0625,-72.875,1745374416.6178672
158,-0.09708393964218458,0.11235557059713497,-0.19744037163185854,-0.5,0.08,10.42,60.5,-33.0625,-72.875,1745374416.6405602
159,-0.09817477042468103,0.11344640137963143,-0.09708393964218458,0.19,0.29,9.33,60.5,-33.0625,-72.875,1745374416.6578872
160,-0.038179077387375956,0.1189005552921137,-0.07526732399225546,0.98,0.66,9.72,62.375,-31.5625,-73.25,1745374416.6810768
161,-0.0272707695624114,-0.016362461737446838,-0.12980886311707826,-0.81,0.24,9.75,62.375,-31.5625,-73.25,1745374416.7013063
162,-0.04581489286485115,0.07744898555724837,-0.1559888018969932,0.06,-0.11,9.92,61.6875,-32.6875,-72.875,1745374416.7190313
163,-0.015271630954950384,0.08617563181722002,-0.07744898555724837,-0.47000000000000003,-0.17,9.98,61.6875,-32.6875,-72.875,1745374416.7409937
164,0.028361600344907856,0.02945243112740431,0.038179077387375956,-0.1,0.12,9.55,61.6875,-32.6875,-72.875,1745374416.7588618
165,0.0545415391248228,0.07744898555724837,0.07090400086226964,0.41000000000000003,0.37,9.75,58.375,-30.875,-72.875,1745374416.7819304
166,0.04799655442984406,0.12217304763960307,0.05890486225480862,-1.19,0.24,10.1,58.375,-30.875,-72.875,1745374416.8011475
167,-0.00545415391248228,0.08290313946973066,-0.05126904677733343,0.32,0.27,10.24,61.25,-31.5625,-73.25,1745374416.8197827
168,-0.004363323129985824,0.031634092692397225,-0.037088246604879506,0.16,0.13,9.9,61.25,-31.5625,-73.25,1745374416.8463345
169,-0.008726646259971648,0.028361600344907856,-0.002181661564992912,0.62,0.32,9.5,58.6875,-32.6875,-73.25,1745374416.8614779
170,0.02181661564992912,-0.0916297857297023,-0.04145156973486533,-0.67,0.46,10.07,58.6875,-32.6875,-73.25,1745374416.8828895
171,-0.03381575425739013,0.018544123302439753,-0.09381144729469522,-1.7,0.0,10.42,58.6875,-32.6875,-73.25,1745374416.902979
172,-0.08835729338221293,0.016362461737446838,-0.05999569303730508,-0.63,-0.09,9.36,57.6875,-32.0,-72.0625,1745374416.9225674
173,-0.11999138607461016,0.044724062082354694,-0.06981317007977318,-0.16,-0.05,9.81,57.6875,-32.0,-72.0625,1745374416.942461
174,-0.09599310885968812,0.10144726277217041,-0.04690572364734761,-1.34,0.22,10.09,59.0625,-30.5,-72.375,1745374416.962303
175,-0.015271630954950384,-0.007635815477475192,0.031634092692397225,-0.7000000000000001,0.15,9.700000000000001,59.0625,-30.5,-72.375,1745374416.9840288
176,0.006544984694978736,-0.07635815477475191,0.04690572364734761,-0.59,0.3,9.98,59.0625,-30.5,-72.375,1745374417.003055
177,0.061086523819801536,-0.022907446432425576,0.09053895494720585,-1.12,-0.45,9.57,56.875,-29.75,-70.75,1745374417.0226073
178,0.014180800172453928,0.09926560120717749,0.12217304763960307,0.25,-0.06,9.8,56.875,-29.75,-70.75,1745374417.0425873
179,0.022907446432425576,0.030543261909900768,0.07853981633974483,-0.88,0.01,9.52,55.5,-30.875,-70.375,1745374417.0626173
180,-0.011999138607461015,0.08617563181722002,0.028361600344907856,0.22,-0.05,10.02,55.5,-30.875,-70.375,1745374417.0842426
181,-0.038179077387375956,-0.017453292519943295,-0.002181661564992912,-1.1300000000000001,0.36,9.8,55.5,-30.875,-70.375,1745374417.1029167
182,-0.0272707695624114,0.1439896632895322,0.026179938779914945,0.27,-0.46,8.96,56.875,-30.875,-72.375,1745374417.1232243
183,0.001090830782496456,-0.07853981633974483,0.11344640137963143,-1.62,0.13,9.790000000000001,56.875,-30.875,-72.375,1745374417.1432269
184,-0.013089969389957472,0.1265363707695889,0.05126904677733343,0.72,0.53,9.07,55.0625,-30.5,-70.75,1745374417.1629548
185,0.037088246604879506,-0.05126904677733343,-0.09381144729469522,0.39,0.15,9.65,55.0625,-30.5,-70.75,1745374417.1855104
186,0.08726646259971647,-0.10799224746714914,-0.0719948316447661,-0.48,-0.36,10.34,55.0625,-30.5,-70.75,1745374417.203207
187,0.09599310885968812,0.13853550937704992,-0.004363323129985824,-0.71,-0.07,10.08,53.25,-30.5,-70.375,1745374417.2243776
188,0.10690141668465268,-0.12980886311707826,0.08835729338221293,-0.35000000000000003,0.44,9.870000000000001,53.25,-30.5,-70.375,1745374417.2449198
189,0.09708393964218458,-0.028361600344907856,0.025089107997418487,-2.08,-0.05,10.6,54.75,-30.0625,-70.75,1745374417.2647812
190,0.018544123302439753,-0.07526732399225546,0.015271630954950384,0.1,0.68,8.82,54.75,-30.0625,-70.75,1745374417.2867897
191,-0.039269908169872414,-0.1265363707695889,-0.136353847812057,-0.98,0.06,10.82,54.75,-30.0625,-70.75,1745374417.3042827
192,-0.11235557059713497,-0.003272492347489368,-0.05126904677733343,-0.3,0.39,9.200000000000001,53.0,-31.5625,-70.0,1745374417.324716
193,-0.07635815477475191,-0.08290313946973066,-0.05781403147231216,-1.48,-0.05,10.49,53.0,-31.5625,-70.0,1745374417.345116
194,-0.07526732399225546,-0.04145156973486533,0.04145156973486533,-0.9,0.48,9.14,51.5625,-31.25,-68.375,1745374417.3640375
195,-0.061086523819801536,-0.039269908169872414,0.00545415391248228,-0.62,0.2,9.64,51.5625,-31.25,-68.375,1745374417.3874779
196,-0.06654067773228381,0.031634092692397225,-0.038179077387375956,-0.1,0.05,10.17,51.5625,-31.25,-68.375,1745374417.4042382
197,-0.016362461737446838,-0.019634954084936207,-0.06872233929727672,-0.48,-0.33,10.27,53.375,-30.0625,-69.5625,1745374417.4268954
198,0.006544984694978736,-0.1308996938995747,0.0272707695624114,-0.85,0.06,9.35,53.375,-30.0625,-69.5625,1745374417.447367
199,0.038179077387375956,-0.013089969389957472,0.055632369907319255,-0.47000000000000003,0.09,9.76,52.0,-30.875,-68.0625,1745374417.4644568
200,0.007635815477475192,-0.016362461737446838,0.039269908169872414,-1.48,-0.12,10.450000000000001,52.0,-30.875,-68.0625,1745374417.488155
201,-0.05999569303730508,0.1090830782496456,-0.01090830782496456,-0.29,0.17,9.56,52.0,-30.875,-68.0625,1745374417.505085
202,-0.04581489286485115,-0.02181661564992912,-0.013089969389957472,-0.73,-0.08,10.03,49.375,-30.0625,-68.375,1745374417.5279748
203,0.001090830782496456,0.01090830782496456,0.020725784867432664,-0.65,0.03,10.02,49.375,-30.0625,-68.375,1745374417.5473976
204,0.0,-0.07308566242726255,0.02399827721492203,-0.54,0.14,9.700000000000001,53.375,-29.375,-69.25,1745374417.5659904
205,-0.019634954084936207,-0.004363323129985824,0.001090830782496456,-0.62,0.08,10.08,53.375,-29.375,-69.25,1745374417.588195
206,-0.044724062082354694,0.003272492347489368,-0.013089969389957472,-0.33,0.05,9.77,53.375,-29.375,-69.25,1745374417.605243
207,0.003272492347489368,0.018544123302439753,-0.013089969389957472,-0.27,0.02,9.94,51.1875,-30.0625,-68.875,1745374417.6287513
208,0.06544984694978735,0.031634092692397225,-0.008726646259971648,-0.36,0.0,9.91,51.1875,-30.0625,-68.875,1745374417.6482008
209,0.10471975511965978,0.028361600344907856,0.007635815477475192,0.31,0.12,9.78,50.5,-29.75,-69.0,1745374417.6653771
210,0.07635815477475191,-0.12326387842209953,0.04581489286485115,-1.08,0.16,9.81,50.5,-29.75,-69.0,1745374417.6892254
211,0.037088246604879506,0.09490227807719166,0.00545415391248228,0.51,0.2,9.620000000000001,50.5,-29.75,-69.0,1745374417.705732
212,-0.04363323129985824,-0.06981317007977318,0.02181661564992912,-0.81,0.34,9.92,52.5625,-29.75,-69.0,1745374417.7289226
213,-0.05781403147231216,0.07744898555724837,-0.001090830782496456,0.09,0.19,9.59,52.5625,-29.75,-69.0,1745374417.7491302
214,-0.08617563181722002,0.008726646259971648,-0.026179938779914945,-0.65,0.11,9.790000000000001,50.75,-30.5,-69.375,1745374417.7657988
215,-0.04581489286485115,0.050178215994836975,-0.04254240051736178,-0.08,0.05,9.8,50.75,-30.5,-69.375,1745374417.789388
216,0.04363323129985824,-0.02181661564992912,-0.044724062082354694,-0.03,-0.08,9.96,50.75,-30.5,-69.375,1745374417.807983
217,0.1341721862470641,-0.020725784867432664,0.013089969389957472,0.01,0.07,9.73,50.5,-30.5,-67.6875,1745374417.8291955
218,0.15271630954950383,-0.04799655442984406,0.020725784867432664,-0.32,0.2,9.83,50.5,-30.5,-67.6875,1745374417.8493452
219,0.06872233929727672,0.06217735460229799,-0.044724062082354694,-0.2,0.19,10.18,53.0,-29.375,-68.875,1745374417.8664627
220,-0.05126904677733343,0.08726646259971647,-0.08290313946973066,-0.02,0.22,9.8,53.0,-29.375,-68.875,1745374417.8892872
221,-0.09490227807719166,-0.11999138607461016,-0.06872233929727672,1.03,0.14,9.06,53.0,-29.375,-68.875,1745374417.9066644
222,-0.055632369907319255,-0.028361600344907856,-0.10799224746714914,-0.13,0.0,10.21,50.0625,-30.875,-68.0625,1745374417.9292135
223,-0.00545415391248228,0.04036073895236887,-0.10471975511965978,-0.84,0.13,9.790000000000001,50.0625,-30.875,-68.0625,1745374417.9494398
224,-0.015271630954950384,-0.002181661564992912,-0.08726646259971647,2.46,0.45,8.78,50.0625,-29.0625,-66.875,1745374417.9671211
225,0.06435901616729091,-0.15707963267948966,-0.025089107997418487,-0.12,-0.19,10.57,50.0625,-29.0625,-66.875,1745374417.9894013
226,-0.002181661564992912,0.02945243112740431,-0.020725784867432664,1.21,0.1,9.46,50.0625,-29.0625,-66.875,1745374418.0073056
227,-0.003272492347489368,-0.09053895494720585,-0.061086523819801536,-0.13,0.15,10.66,52.25,-29.75,-69.375,1745374418.0293918
228,0.014180800172453928,-0.1908953869368798,0.013089969389957472,-0.11,-0.34,10.13,52.25,-29.75,-69.375,1745374418.0496154
229,0.044724062082354694,-0.05345070834232634,-0.07744898555724837,-1.23,-0.11,10.08,49.75,-30.0625,-67.6875,1745374418.0677857
230,-0.07308566242726255,-0.01090830782496456,-0.11126473981463851,-1.41,0.08,10.34,49.75,-30.0625,-67.6875,1745374418.0896845
231,-0.01090830782496456,-0.030543261909900768,-0.10471975511965978,-1.56,-0.13,10.94,49.75,-30.0625,-67.6875,1745374418.1076176
232,-0.050178215994836975,-0.031634092692397225,-0.05999569303730508,-0.48,0.05,10.39,49.75,-29.75,-66.5,1745374418.1298077
233,-0.014180800172453928,-0.014180800172453928,-0.11017390903214205,-0.6900000000000001,0.19,9.870000000000001,49.75,-29.75,-66.5,1745374418.1498544
234,-0.013089969389957472,-0.018544123302439753,-0.09490227807719166,-0.33,0.0,9.56,51.5625,-29.375,-69.375,1745374418.16819
235,-0.03599741582238305,0.06654067773228381,-0.1505346479845109,0.88,0.02,9.76,51.5625,-29.375,-69.375,1745374418.190015
236,-0.017453292519943295,-0.12980886311707826,-0.04690572364734761,-2.59,0.04,9.78,50.0625,-30.5,-66.0625,1745374418.2082167
237,0.028361600344907856,0.0916297857297023,-0.0272707695624114,-0.93,0.16,9.3,50.0625,-30.5,-66.0625,1745374418.2297251
238,0.008726646259971648,-0.05345070834232634,-0.013089969389957472,-1.07,-0.02,10.52,50.0625,-30.5,-66.0625,1745374418.2498071
239,-0.016362461737446838,0.1407171709420428,-0.05126904677733343,-0.41000000000000003,0.14,9.75,50.5,-28.25,-65.6875,1745374418.2688494
240,-0.031634092692397225,0.06654067773228381,-0.055632369907319255,-0.77,-0.03,9.9,50.5,-28.25,-65.6875,1745374418.2902906
241,0.001090830782496456,0.09053895494720585,0.006544984694978736,-0.5,0.08,9.93,51.1875,-29.0625,-67.6875,1745374418.3088238
242,-0.0272707695624114,0.006544984694978736,0.001090830782496456,-0.38,0.13,10.01,51.1875,-29.0625,-67.6875,1745374418.3298643
243,-0.0545415391248228,-0.02181661564992912,-0.004363323129985824,-0.33,0.03,9.72,51.1875,-29.0625,-67.6875,1745374418.3504155
244,-0.037088246604879506,-0.0545415391248228,0.001090830782496456,-0.32,0.03,9.86,49.75,-29.375,-65.375,1745374418.3719192
245,0.004363323129985824,-0.061086523819801536,0.006544984694978736,-0.23,0.09,9.73,49.75,-29.375,-65.375,1745374418.3944325
246,-0.016362461737446838,-0.04036073895236887,0.00545415391248228,-0.2,0.11,9.94,49.75,-28.6875,-65.6875,1745374418.413583
247,-0.04581489286485115,0.0,-0.008726646259971648,-0.25,0.06,9.88,49.75,-28.6875,-65.6875,1745374418.433603
248,-0.04036073895236887,0.006544984694978736,-0.007635815477475192,-0.27,0.02,9.73,49.75,-28.6875,-65.6875,1745374418.4525752
249,-0.00545415391248228,-0.001090830782496456,-0.003272492347489368,-0.29,0.02,9.790000000000001,52.25,-28.25,-68.5,1745374418.4744911
250,0.018544123302439753,-0.014180800172453928,-0.004363323129985824,-0.27,0.02,9.8,52.25,-28.25,-68.5,1745374418.4947293
251,0.05672320068981571,-0.013089969389957472,0.001090830782496456,-0.25,0.01,9.92,50.5,-29.375,-65.6875,1745374418.513237
252,0.06217735460229799,-0.013089969389957472,0.003272492347489368,-0.24,0.14,9.82,50.5,-29.375,-65.6875,1745374418.5342267
253,0.016362461737446838,-0.007635815477475192,-0.002181661564992912,-0.27,0.12,9.85,50.5,-29.375,-65.6875,1745374418.5530322
254,-0.013089969389957472,-0.001090830782496456,-0.01090830782496456,-0.27,0.09,9.83,50.5,-28.6875,-66.875,1745374418.5760803
255,0.00545415391248228,0.004363323129985824,-0.006544984694978736,-0.26,0.06,9.78,50.5,-28.6875,-66.875,1745374418.5955298
256,0.02945243112740431,-0.009817477042468103,0.001090830782496456,-0.29,0.08,9.76,50.75,-29.0625,-68.875,1745374418.6135564
257,0.019634954084936207,-0.02399827721492203,0.004363323129985824,-0.29,0.14,9.870000000000001,50.75,-29.0625,-68.875,1745374418.6352613
258,-0.004363323129985824,-0.0272707695624114,-0.007635815477475192,-0.29,0.09,9.82,50.75,-29.0625,-68.875,1745374418.6535442
259,0.01090830782496456,-0.05126904677733343,-0.004363323129985824,-0.28,0.08,9.82,50.0625,-29.75,-65.6875,1745374418.6772313
260,0.032724923474893676,-0.07635815477475191,-0.002181661564992912,-0.26,0.11,9.86,50.0625,-29.75,-65.6875,1745374418.6969268
261,0.022907446432425576,-0.09053895494720585,-0.006544984694978736,-0.25,0.17,9.78,50.0625,-28.6875,-66.5,1745374418.7142422
262,-0.015271630954950384,-0.10362892433716332,-0.011999138607461015,-0.26,0.16,9.77,50.0625,-28.6875,-66.5,1745374418.7361689
263,-0.05781403147231216,-0.10253809355466686,-0.032724923474893676,-0.27,0.19,9.84,50.0625,-28.6875,-66.5,1745374418.7541287
264,-0.10362892433716332,-0.07308566242726255,-0.08399397025222712,-0.53,0.2,9.94,51.5625,-29.0625,-68.5,1745374418.7768073
265,-0.13526301702956053,-0.04145156973486533,-0.1505346479845109,-0.48,0.1,9.93,51.5625,-29.0625,-68.5,1745374418.7995229
266,-0.13744467859455345,-0.020725784867432664,-0.1832595714594046,-1.05,0.18,9.92,48.25,-29.0625,-67.6875,1745374418.8150098
267,-0.08399397025222712,0.12762720155208535,-0.1930770485018727,0.27,-0.28,9.620000000000001,48.25,-29.0625,-67.6875,1745374418.843306
268,-0.025089107997418487,0.0916297857297023,-0.13853550937704992,0.32,-0.17,9.69,48.25,-29.0625,-67.6875,1745374418.855065
269,0.028361600344907856,-0.01090830782496456,-0.04581489286485115,-1.45,-0.08,10.08,49.75,-27.25,-67.6875,1745374418.8782265
270,0.018544123302439753,0.10362892433716332,0.003272492347489368,-0.27,0.02,9.620000000000001,49.75,-27.25,-67.6875,1745374418.8982308
271,0.032724923474893676,0.020725784867432664,0.04145156973486533,-0.39,-0.09,9.94,51.5625,-27.25,-68.5,1745374418.91633
272,0.04799655442984406,-0.00545415391248228,0.09272061651219876,-0.72,0.09,9.84,51.5625,-27.25,-68.5,1745374418.9379244
273,0.0719948316447661,-0.011999138607461015,0.10690141668465268,-0.73,0.02,9.77,51.5625,-27.25,-68.5,1745374418.9551547
274,0.06654067773228381,0.014180800172453928,0.09599310885968812,-0.49,0.05,9.82,50.5,-29.375,-66.5,1745374418.978269
275,0.022907446432425576,-0.004363323129985824,0.07635815477475191,-0.67,0.28,9.89,50.5,-29.375,-66.5,1745374418.9981081
276,0.022907446432425576,0.03490658503988659,0.12544553998709243,0.23,0.17,9.8,51.5625,-27.25,-68.1875,1745374419.016506
277,0.05672320068981571,-0.025089107997418487,0.12980886311707826,-0.35000000000000003,0.18,9.870000000000001,51.5625,-27.25,-68.1875,1745374419.038325
278,0.032724923474893676,0.017453292519943295,0.07090400086226964,-0.43,0.25,9.88,51.5625,-27.25,-68.1875,1745374419.0557325
279,0.008726646259971648,-0.026179938779914945,0.020725784867432664,0.03,0.06,9.89,51.5625,-29.0625,-69.6875,1745374419.078358
280,0.025089107997418487,-0.009817477042468103,0.03599741582238305,0.43,0.12,9.84,51.5625,-29.0625,-69.6875,1745374419.098792
281,0.04036073895236887,-0.013089969389957472,0.05890486225480862,-0.4,0.15,9.8,50.0625,-29.5,-68.5,1745374419.1167643
282,0.02945243112740431,0.00545415391248228,0.06435901616729091,-0.2,0.08,9.790000000000001,50.0625,-29.5,-68.5,1745374419.1382284
283,0.009817477042468103,0.02945243112740431,0.05781403147231216,-0.22,0.17,9.83,51.1875,-28.25,-68.5,1745374419.1571467
284,-0.006544984694978736,0.002181661564992912,0.05999569303730508,-0.11,0.12,9.84,51.1875,-28.25,-68.5,1745374419.178476
285,-0.008726646259971648,0.015271630954950384,0.031634092692397225,0.32,-0.03,9.81,51.1875,-28.25,-68.5,1745374419.198889
286,0.02181661564992912,0.026179938779914945,0.06435901616729091,-0.08,0.26,9.620000000000001,52.0,-29.0625,-70.5,1745374419.2169635
287,0.028361600344907856,-0.032724923474893676,0.055632369907319255,-0.8,0.15,9.790000000000001,52.0,-29.0625,-70.5,1745374419.238451
288,-0.004363323129985824,0.050178215994836975,0.044724062082354694,-0.33,0.2,9.790000000000001,50.75,-29.75,-70.5,1745374419.2571778
289,-0.014180800172453928,0.038179077387375956,0.05672320068981571,-0.05,0.13,9.82,50.75,-29.75,-70.5,1745374419.2785707
290,-0.001090830782496456,0.002181661564992912,0.055632369907319255,-0.23,0.05,9.870000000000001,50.75,-29.75,-70.5,1745374419.2995903
291,0.06217735460229799,0.03490658503988659,0.09599310885968812,0.14,-0.16,9.8,52.0,-29.5,-69.0,1745374419.3218977
292,0.05999569303730508,-0.038179077387375956,0.13962634015954636,-0.45,0.12,9.790000000000001,52.0,-29.5,-69.0,1745374419.3408375
293,0.015271630954950384,0.04145156973486533,0.10253809355466686,-0.29,0.44,9.71,52.5625,-30.0625,-73.0,1745374419.3608456
294,-0.01090830782496456,0.03490658503988659,0.05999569303730508,-0.48,0.1,9.82,52.5625,-30.0625,-73.0,1745374419.3809648
295,0.018544123302439753,0.00545415391248228,0.10362892433716332,-0.55,0.18,9.99,52.5625,-30.0625,-73.0,1745374419.400986
296,0.06981317007977318,0.020725784867432664,0.1538071403320003,-0.12,0.45,9.620000000000001,51.1875,-30.5,-70.5,1745374419.4212122
297,0.04145156973486533,-0.018544123302439753,0.12544553998709243,-0.55,0.16,9.98,51.1875,-30.5,-70.5,1745374419.4421606
298,-0.03490658503988659,0.014180800172453928,0.044724062082354694,-0.07,0.19,9.89,52.5625,-30.5,-71.375,1745374419.462775
299,-0.06326818538479445,0.008726646259971648,-0.004363323129985824,-1.1300000000000001,0.4,9.92,52.5625,-30.5,-71.375,1745374419.4911401
300,-0.007635815477475192,0.04363323129985824,0.06326818538479445,0.06,-0.19,9.81,54.0625,-31.25,-73.75,1745374419.507727
301,0.017453292519943295,0.020725784867432664,0.13308135546456762,-0.31,0.35000000000000003,9.82,54.0625,-31.25,-73.75,1745374419.5271552
302,-0.03599741582238305,-0.020725784867432664,0.08617563181722002,-0.8300000000000001,0.54,9.83,54.0625,-31.25,-73.75,1745374419.5501525
303,-0.06981317007977318,0.009817477042468103,0.009817477042468103,-0.29,0.02,9.9,52.25,-31.5625,-71.375,1745374419.5641215
304,-0.05781403147231216,0.017453292519943295,0.015271630954950384,-0.26,0.14,9.870000000000001,52.25,-31.5625,-71.375,1745374419.587719
305,0.03599741582238305,0.014180800172453928,0.09381144729469522,-0.4,0.22,9.96,52.25,-31.5625,-71.375,1745374419.604765
306,0.06217735460229799,0.04799655442984406,0.09708393964218458,0.24,0.03,9.8,53.75,-31.25,-73.0,1745374419.6266327
307,0.06326818538479445,-0.037088246604879506,0.09599310885968812,0.73,0.16,9.98,53.75,-31.25,-73.0,1745374419.6477838
308,0.04799655442984406,-0.06217735460229799,0.09817477042468103,-1.3900000000000001,0.42,9.84,56.0,-32.0,-75.25,1745374419.6655614
309,-0.004363323129985824,-0.03599741582238305,0.06435901616729091,-0.76,0.46,9.92,56.0,-32.0,-75.25,1745374419.6875315
310,0.00545415391248228,0.008726646259971648,0.06217735460229799,0.2,-0.1,9.76,56.0,-32.0,-75.25,1745374419.7057345
311,0.002181661564992912,-0.00545415391248228,0.08290313946973066,-0.71,0.45,9.73,54.0625,-32.6875,-72.0625,1745374419.7274222
312,0.031634092692397225,-0.013089969389957472,0.08726646259971647,0.07,0.02,9.84,54.0625,-32.6875,-72.0625,1745374419.7475162
313,0.007635815477475192,0.05126904677733343,0.055632369907319255,-0.14,0.29,9.58,56.25,-33.0625,-73.6875,1745374419.7659142
314,-0.003272492347489368,-0.05345070834232634,0.006544984694978736,-0.15,0.18,9.71,56.25,-33.0625,-73.6875,1745374419.7877228
315,0.04036073895236887,0.004363323129985824,0.003272492347489368,-0.28,-0.09,9.85,56.25,-33.0625,-73.6875,1745374419.8058293
316,0.06435901616729091,0.002181661564992912,0.037088246604879506,0.11,0.39,9.700000000000001,57.75,-34.0625,-73.6875,1745374419.82839
317,0.061086523819801536,-0.044724062082354694,0.08072147790473774,-0.18,0.17,9.93,57.75,-34.0625,-73.6875,1745374419.8529804
318,0.025089107997418487,0.038179077387375956,0.02399827721492203,1.01,0.22,9.61,57.75,-33.5,-71.25,1745374419.86873
319,-0.04799655442984406,-0.039269908169872414,-0.026179938779914945,-1.1,0.03,10.200000000000001,57.75,-33.5,-71.25,1745374419.8900998
320,-0.02945243112740431,0.10690141668465268,-0.008726646259971648,0.18,-0.01,9.91,58.75,-33.75,-74.375,1745374419.907029
321,-0.002181661564992912,-0.05235987755982989,0.05999569303730508,-0.48,0.38,10.28,58.75,-33.75,-74.375,1745374419.9284363
322,0.044724062082354694,0.08944812416470939,0.10690141668465268,0.35000000000000003,0.3,9.39,58.75,-33.75,-74.375,1745374419.948262
323,-0.032724923474893676,-0.09053895494720585,0.07090400086226964,-1.52,0.42,10.120000000000001,60.25,-34.75,-74.875,1745374419.9675086
324,-0.09490227807719166,0.030543261909900768,-0.01090830782496456,-0.54,0.27,10.040000000000001,60.25,-34.75,-74.875,1745374419.9883707
325,-0.0916297857297023,0.04908738521234052,-0.044724062082354694,0.36,-0.28,9.82,58.6875,-34.375,-72.875,1745374420.007349
326,-0.006544984694978736,0.017453292519943295,0.009817477042468103,0.4,-0.06,9.59,58.6875,-34.375,-72.875,1745374420.02911
327,0.03490658503988659,-0.02181661564992912,0.06763150851478027,-0.52,0.26,10.120000000000001,58.6875,-34.375,-72.875,1745374420.0486288
328,0.03490658503988659,0.031634092692397225,0.04908738521234052,1.09,0.23,9.43,61.6875,-33.6875,-74.0625,1745374420.0682228
329,0.030543261909900768,-0.20943951023931956,0.09272061651219876,-1.44,0.02,10.26,61.6875,-33.6875,-74.0625,1745374420.0888321
330,0.044724062082354694,0.23343778745424157,0.014180800172453928,1.0,0.2,9.09,62.6875,-35.5,-73.6875,1745374420.1085534
331,0.019634954084936207,-0.22143864884678055,0.08399397025222712,-1.81,0.47000000000000003,10.3,62.6875,-35.5,-73.6875,1745374420.1290703
332,-0.00545415391248228,0.07853981633974483,-0.01090830782496456,0.03,0.4,9.73,62.6875,-35.5,-73.6875,1745374420.1489003
333,-0.07963064712224129,0.09708393964218458,-0.011999138607461015,-0.29,0.33,9.65,61.25,-34.75,-72.375,1745374420.1693285
334,-0.0719948316447661,0.08726646259971647,-0.08726646259971647,0.8300000000000001,-0.21,10.14,61.25,-34.75,-72.375,1745374420.1888785
335,-0.04799655442984406,0.04799655442984406,-0.025089107997418487,0.49,-0.02,10.03,62.6875,-34.75,-72.5,1745374420.211173
336,0.017453292519943295,0.006544984694978736,0.044724062082354694,-0.88,0.28,9.700000000000001,62.6875,-34.75,-72.5,1745374420.2341712
337,0.001090830782496456,-0.13962634015954636,0.031634092692397225,-1.2,0.38,10.06,62.6875,-34.75,-72.5,1745374420.2520163
338,-0.031634092692397225,0.17016960206944712,-0.04799655442984406,0.58,0.29,9.84,63.875,-35.1875,-74.0625,1745374420.276262
339,-0.055632369907319255,-0.038179077387375956,-0.011999138607461015,-1.05,0.07,10.24,63.875,-35.1875,-74.0625,1745374420.296869
340,-0.05126904677733343,-0.05345070834232634,0.02945243112740431,-2.45,0.23,10.120000000000001,63.5,-35.1875,-71.25,1745374420.3145332
341,-0.019634954084936207,0.16035212502697901,-0.0272707695624114,-0.35000000000000003,0.14,9.38,63.5,-35.1875,-71.25,1745374420.3371854
342,0.020725784867432664,-0.04036073895236887,0.015271630954950384,0.44,-0.19,9.94,64.5,-34.75,-71.6875,1745374420.3556142
343,0.001090830782496456,-0.13199052468207118,0.011999138607461015,-1.0,0.35000000000000003,9.88,64.5,-34.75,-71.6875,1745374420.3764958
344,-0.011999138607461015,0.24870941840919197,-0.06872233929727672,-0.33,0.23,9.71,64.5,-34.75,-71.6875,1745374420.3969758
345,0.017453292519943295,-0.03599741582238305,0.00545415391248228,0.5700000000000001,0.06,10.23,64.875,-36.1875,-72.875,1745374420.4165254
346,0.015271630954950384,-0.001090830782496456,0.030543261909900768,-0.26,0.2,9.99,64.875,-36.1875,-72.875,1745374420.4364924
347,-0.07853981633974483,0.030543261909900768,-0.022907446432425576,0.62,0.29,9.47,64.875,-36.1875,-72.875,1745374420.4543386
348,-0.0916297857297023,0.044724062082354694,-0.04799655442984406,0.59,-0.07,9.68,64.875,-34.375,-70.875,1745374420.4764886
349,-0.0272707695624114,-0.016362461737446838,0.0,-0.49,-0.25,10.25,64.875,-34.375,-70.875,1745374420.4970138
350,-0.013089969389957472,0.11562806294462433,-0.003272492347489368,-0.26,0.14,9.72,66.375,-35.1875,-71.25,1745374420.515247
351,-0.038179077387375956,-0.020725784867432664,0.04363323129985824,-0.4,0.14,10.13,66.375,-35.1875,-71.25,1745374420.5364847
352,-0.04145156973486533,0.030543261909900768,0.011999138607461015,0.75,0.12,9.74,66.375,-35.1875,-71.25,1745374420.5546703
353,-0.06217735460229799,-0.1810779098944117,0.06763150851478027,-0.33,0.03,9.9,66.375,-35.875,-71.5625,1745374420.576651
354,-0.05890486225480862,0.03381575425739013,0.008726646259971648,2.04,0.23,8.74,66.375,-35.875,-71.5625,1745374420.597149
355,-0.07744898555724837,0.0272707695624114,0.039269908169872414,-0.2,0.05,9.700000000000001,65.6875,-35.1875,-71.5625,1745374420.6153805
356,-0.04690572364734761,0.03381575425739013,0.015271630954950384,1.09,-0.07,9.48,65.6875,-35.1875,-71.5625,1745374420.636626
357,-0.025089107997418487,-0.04581489286485115,0.001090830782496456,0.11,0.07,9.96,65.6875,-35.1875,-71.5625,1745374420.6550088
358,0.015271630954950384,0.0,-0.002181661564992912,-0.14,0.11,9.82,67.5,-35.1875,-72.0625,1745374420.6766765
359,0.06217735460229799,-0.14508049407202864,0.02945243112740431,-0.05,0.13,9.84,67.5,-35.1875,-72.0625,1745374420.6980321
360,0.05672320068981571,-0.025089107997418487,0.02181661564992912,-0.09,0.16,9.91,66.0,-36.1875,-72.0625,1745374420.7163904
361,-0.05126904677733343,0.03599741582238305,-0.013089969389957472,-0.23,0.05,10.0,66.0,-36.1875,-72.0625,1745374420.737102
362,-0.09053895494720585,0.1189005552921137,-0.02399827721492203,-0.28,-0.03,9.870000000000001,65.6875,-35.5,-71.25,1745374420.7564292
363,-0.02181661564992912,0.1090830782496456,-0.014180800172453928,-0.43,0.05,9.870000000000001,65.6875,-35.5,-71.25,1745374420.777056
364,0.03599741582238305,0.05999569303730508,-0.00545415391248228,-0.42,0.07,9.76,65.6875,-35.5,-71.25,1745374420.7990978
365,0.050178215994836975,0.014180800172453928,-0.006544984694978736,-0.42,0.06,9.870000000000001,67.5,-34.375,-73.25,1745374420.8163106
366,0.032724923474893676,-0.015271630954950384,0.0,-0.37,0.12,9.82,67.5,-34.375,-73.25,1745374420.8371975
367,0.001090830782496456,-0.030543261909900768,0.0,-0.34,0.1,9.81,65.6875,-35.875,-70.375,1745374420.856148
368,-0.030543261909900768,-0.0272707695624114,-0.002181661564992912,-0.28,0.07,9.84,65.6875,-35.875,-70.375,1745374420.8770304
369,-0.044724062082354694,-0.018544123302439753,-0.00545415391248228,-0.28,0.01,9.81,65.6875,-35.875,-70.375,1745374420.8979769
370,-0.025089107997418487,-0.006544984694978736,-0.007635815477475192,-0.28,0.0,9.84,67.5,-34.75,-70.375,1745374420.9164422
371,0.0272707695624114,0.02181661564992912,-0.00545415391248228,-0.33,0.03,9.82,67.5,-34.75,-70.375,1745374420.9375808
372,0.03599741582238305,0.026179938779914945,-0.002181661564992912,-0.33,0.09,9.86,67.0625,-35.1875,-72.1875,1745374420.9566095
373,0.025089107997418487,0.03381575425739013,-0.009817477042468103,-0.35000000000000003,0.05,9.81,67.0625,-35.1875,-72.1875,1745374420.9774585
374,0.025089107997418487,0.026179938779914945,-0.007635815477475192,-0.35000000000000003,0.1,9.84,67.0625,-35.1875,-72.1875,1745374420.9979427
375,0.009817477042468103,0.026179938779914945,-0.00545415391248228,-0.34,0.1,9.83,66.0,-35.5,-70.0625,1745374421.0172327
376,-0.032724923474893676,0.022907446432425576,-0.008726646259971648,-0.37,0.1,9.86,66.0,-35.5,-70.0625,1745374421.0372593
377,-0.03599741582238305,0.008726646259971648,-0.004363323129985824,-0.39,0.02,9.86,67.875,-34.75,-71.6875,1745374421.0570655
378,0.003272492347489368,-0.020725784867432664,0.004363323129985824,-0.36,0.08,9.790000000000001,67.875,-34.75,-71.6875,1745374421.077452
379,-0.004363323129985824,-0.028361600344907856,0.002181661564992912,-0.31,0.1,9.81,67.875,-34.75,-71.6875,1745374421.1004198
380,-0.04690572364734761,-0.013089969389957472,-0.001090830782496456,-0.29,0.06,9.83,67.5,-34.75,-71.25,1745374421.1249943
381,-0.04363323129985824,0.011999138607461015,-0.003272492347489368,-0.33,-0.01,9.83,67.5,-34.75,-71.25,1745374421.1425169
382,-0.006544984694978736,0.015271630954950384,-0.004363323129985824,-0.33,0.0,9.870000000000001,66.375,-35.1875,-71.0,1745374421.1617024
383,0.02399827721492203,0.007635815477475192,-0.001090830782496456,-0.38,0.07,9.82,66.375,-35.1875,-71.0,1745374421.182814
384,0.017453292519943295,-0.004363323129985824,-0.002181661564992912,-0.33,0.08,9.81,66.375,-35.1875,-71.0,1745374421.201097
385,-0.016362461737446838,0.0,-0.00545415391248228,-0.36,0.05,9.88,68.1875,-34.375,-73.0,1745374421.2226217
386,-0.01090830782496456,0.001090830782496456,-0.001090830782496456,-0.35000000000000003,0.01,9.78,68.1875,-34.375,-73.0,1745374421.2429054
387,0.01090830782496456,-0.00545415391248228,-0.001090830782496456,-0.34,0.01,9.86,67.875,-36.1875,-71.0,1745374421.2628272
388,0.028361600344907856,0.0,-0.00545415391248228,-0.35000000000000003,0.03,9.9,67.875,-36.1875,-71.0,1745374421.2834115
389,0.0545415391248228,0.003272492347489368,-0.00545415391248228,-0.35000000000000003,0.0,9.790000000000001,67.875,-36.1875,-71.0,1745374421.3015852
390,0.08508480103472356,-0.002181661564992912,-0.004363323129985824,-0.32,0.09,9.83,66.0,-35.875,-71.6875,1745374421.3230407
391,0.08835729338221293,0.030543261909900768,-0.007635815477475192,-0.31,0.12,9.84,66.0,-35.875,-71.6875,1745374421.3440905
392,0.07744898555724837,0.04799655442984406,-0.011999138607461015,-0.34,0.12,9.870000000000001,67.875,-35.5,-71.5625,1745374421.3607543
393,0.07417649320975901,0.05781403147231216,-0.014180800172453928,-0.39,0.11,9.77,67.875,-35.5,-71.5625,1745374421.3838863
394,0.08072147790473774,0.039269908169872414,-0.007635815477475192,-0.41000000000000003,0.17,9.82,67.875,-35.5,-71.5625,1745374421.4016955
395,0.061086523819801536,0.011999138607461015,-0.004363323129985824,-0.42,0.18,9.91,66.375,-35.875,-70.0625,1745374421.424316
396,0.022907446432425576,0.002181661564992912,-0.007635815477475192,-0.4,0.18,9.78,66.375,-35.875,-70.0625,1745374421.4444482
397,0.00545415391248228,-0.01090830782496456,-0.004363323129985824,-0.35000000000000003,0.17,9.85,67.0625,-34.75,-70.1875,1745374421.464405
398,0.01090830782496456,-0.019634954084936207,-0.003272492347489368,-0.37,0.12,9.870000000000001,67.0625,-34.75,-70.1875,1745374421.4851794
399,0.025089107997418487,-0.03599741582238305,-0.004363323129985824,-0.36,0.08,9.81,67.0625,-34.75,-70.1875,1745374421.5032115
400,0.028361600344907856,-0.04581489286485115,-0.017453292519943295,-0.37,0.21,9.8,68.875,-36.5625,-71.75,1745374421.5242457
401,0.044724062082354694,-0.02181661564992912,-0.015271630954950384,-0.32,0.17,9.85,68.875,-36.5625,-71.75,1745374421.5457127
402,0.038179077387375956,0.003272492347489368,-0.015271630954950384,-0.29,0.16,9.9,66.6875,-36.5625,-71.0,1745374421.5632918
403,0.008726646259971648,0.008726646259971648,-0.026179938779914945,-0.37,0.23,9.790000000000001,66.6875,-36.5625,-71.0,1745374421.5851676
404,0.026179938779914945,0.015271630954950384,-0.019634954084936207,-0.3,0.03,9.790000000000001,66.375,-35.875,-69.0,1745374421.6039066
405,-0.009817477042468103,-0.011999138607461015,-0.061086523819801536,-0.48,0.68,9.86,66.375,-35.875,-69.0,1745374421.6249428
406,0.05235987755982989,-0.013089969389957472,-0.04036073895236887,-0.31,-0.24,9.83,66.375,-35.875,-69.0,1745374421.645121
407,0.004363323129985824,-0.04036073895236887,-0.009817477042468103,-0.44,0.0,9.81,67.875,-35.875,-71.75,1745374421.6629562
408,0.061086523819801536,-0.002181661564992912,-0.028361600344907856,-0.33,0.13,9.86,67.875,-35.875,-71.75,1745374421.6851535
409,0.05999569303730508,0.04363323129985824,-0.03381575425739013,-0.35000000000000003,0.34,9.84,67.0625,-36.5625,-71.0,1745374421.703973
410,0.001090830782496456,0.028361600344907856,-0.061086523819801536,-0.33,-2.2,9.96,67.0625,-36.5625,-71.0,1745374421.7253194
411,-0.3119776037939864,-0.038179077387375956,-0.12871803233458182,0.09,2.75,8.950000000000001,67.0625,-36.5625,-71.0,1745374421.745439
412,0.10253809355466686,0.019634954084936207,0.03490658503988659,-0.36,-0.34,9.56,67.0625,-34.75,-70.5,1745374421.7640095
413,0.23671027980173096,0.011999138607461015,0.04799655442984406,-0.29,0.23,9.790000000000001,67.0625,-34.75,-70.5,1745374421.7853332
414,0.09053895494720585,0.01090830782496456,0.04145156973486533,0.06,-2.49,9.99,68.875,-35.875,-72.1875,1745374421.805651
415,-0.40033489717619936,-0.11126473981463851,0.10799224746714914,-0.51,2.96,10.11,68.875,-35.875,-72.1875,1745374421.8258994
416,-0.28907015736156083,0.004363323129985824,-0.017453292519943295,0.25,-0.02,9.84,68.875,-35.875,-72.1875,1745374421.8462813
417,0.050178215994836975,0.011999138607461015,0.07090400086226964,-0.27,0.08,10.01,66.6875,-35.5,-71.0,1745374421.8650258
418,0.4374231437810788,-0.016362461737446838,0.02399827721492203,0.44,-4.71,9.83,66.6875,-35.5,-71.0,1745374421.8858936
419,-0.1308996938995747,-0.06981317007977318,0.011999138607461015,-1.97,1.92,10.5,66.6875,-34.75,-70.1875,1745374421.9050367
420,-0.6424993308904126,0.04254240051736178,0.06763150851478027,-0.96,1.09,9.27,66.6875,-34.75,-70.1875,1745374421.9258175
421,-0.28034351110158917,0.08072147790473774,0.022907446432425576,-0.31,-0.8200000000000001,9.73,66.6875,-34.75,-70.1875,1745374421.9460633
422,0.01090830782496456,0.001090830782496456,0.1734420944169365,-0.85,0.55,9.370000000000001,67.5,-35.1875,-72.1875,1745374421.9654922
423,0.20616701789183017,-0.030543261909900768,0.15707963267948966,-0.42,-0.55,10.370000000000001,67.5,-35.1875,-72.1875,1745374421.9869397
424,-0.11126473981463851,0.0272707695624114,0.09708393964218458,0.17,2.62,9.67,65.6875,-34.375,-70.1875,1745374422.0062726
425,0.04363323129985824,0.04690572364734761,0.009817477042468103,-0.29,-0.54,9.790000000000001,65.6875,-34.375,-70.1875,1745374422.0265093
426,-0.07963064712224129,0.002181661564992912,0.037088246604879506,-0.28,0.48,9.91,65.6875,-34.375,-70.1875,1745374422.0465164
427,-0.025089107997418487,-0.001090830782496456,0.008726646259971648,-0.19,1.02,9.86,66.6875,-35.1875,-70.5,1745374422.0669866
428,0.015271630954950384,-0.02181661564992912,0.044724062082354694,-0.6,-1.22,9.85,66.6875,-35.1875,-70.5,1745374422.0874498
429,-0.009817477042468103,0.013089969389957472,0.12326387842209953,-0.51,0.17,9.61,66.6875,-35.875,-72.1875,1745374422.1065104
430,-0.007635815477475192,0.04581489286485115,0.10581058590215622,-0.65,1.04,9.52,66.6875,-35.875,-72.1875,1745374422.1271327
431,0.10581058590215622,0.02181661564992912,0.11562806294462433,-0.31,0.37,9.8,66.6875,-35.875,-72.1875,1745374422.147735
432,0.11780972450961724,0.0,-0.04581489286485115,0.0,0.34,10.16,66.0,-35.5,-69.75,1745374422.1727533
433,0.28034351110158917,-0.006544984694978736,0.050178215994836975,-0.58,0.03,9.84,66.0,-35.5,-69.75,1745374422.1930737
434,0.12435470920459599,-0.004363323129985824,-0.08399397025222712,0.26,-1.36,10.0,66.0,-35.875,-71.75,1745374422.2102795
435,-0.07526732399225546,0.039269908169872414,0.006544984694978736,-0.31,0.44,9.75,66.0,-35.875,-71.75,1745374422.2320616
436,-0.017453292519943295,0.02945243112740431,0.009817477042468103,-0.5700000000000001,0.35000000000000003,9.55,66.0,-35.875,-71.75,1745374422.250115
437,0.030543261909900768,0.028361600344907856,-0.05890486225480862,-0.43,0.32,10.06,65.25,-36.5625,-71.375,1745374422.2727964
438,-0.08072147790473774,0.004363323129985824,-0.00545415391248228,-0.51,0.3,10.03,65.25,-36.5625,-71.375,1745374422.2933824
439,-0.04690572364734761,-0.009817477042468103,0.006544984694978736,-0.65,-0.8300000000000001,9.64,64.875,-35.5,-68.5,1745374422.309946
440,-0.04145156973486533,0.004363323129985824,-0.015271630954950384,-0.6,0.58,9.8,64.875,-35.5,-68.5,1745374422.3330379
441,0.06217735460229799,0.016362461737446838,-0.07526732399225546,-0.2,-1.72,9.84,64.875,-35.5,-68.5,1745374422.3501706
442,-0.05890486225480862,-0.017453292519943295,0.10799224746714914,-0.65,0.6,9.67,66.375,-35.5,-69.75,1745374422.37317
443,0.011999138607461015,-0.011999138607461015,-0.05126904677733343,-0.48,-0.27,9.75,66.375,-35.5,-69.75,1745374422.3940768
444,0.06654067773228381,0.008726646259971648,0.06981317007977318,-0.3,-1.93,9.48,64.875,-37.0,-70.1875,1745374422.4129493
445,-0.11562806294462433,0.028361600344907856,-0.02945243112740431,-0.56,0.81,9.61,64.875,-37.0,-70.1875,1745374422.4342031
446,-0.03490658503988659,0.05235987755982989,-0.05126904677733343,-0.45,0.79,9.91,64.875,-37.0,-70.1875,1745374422.4522266
447,0.13744467859455345,0.0,0.05999569303730508,-0.36,-0.91,9.67,64.1875,-35.5,-69.0,1745374422.4732866
448,-0.04254240051736178,-0.004363323129985824,-0.018544123302439753,-0.5,2.48,9.94,64.1875,-35.5,-69.0,1745374422.493709
449,0.19198621771937624,0.03599741582238305,-0.08835729338221293,-0.43,-2.2600000000000002,10.44,66.375,-35.875,-70.5,1745374422.510991
450,-0.3010692959690218,-0.020725784867432664,-0.009817477042468103,-0.22,0.96,10.09,66.375,-35.875,-70.5,1745374422.5344877
451,-0.13962634015954636,0.038179077387375956,-0.11999138607461016,-0.1,-0.05,9.950000000000001,66.375,-35.875,-70.5,1745374422.5509274
452,0.055632369907319255,0.0,-0.004363323129985824,-0.55,-0.64,9.53,63.875,-36.1875,-70.1875,1745374422.5736272
453,0.17780541754692233,-0.017453292519943295,0.14508049407202864,-0.07,-1.25,10.05,63.875,-36.1875,-70.1875,1745374422.5938945
454,0.02181661564992912,0.014180800172453928,0.003272492347489368,0.0,-0.74,9.32,64.875,-34.75,-70.5,1745374422.613435
455,0.09381144729469522,0.011999138607461015,-0.12871803233458182,-0.58,0.08,9.99,64.875,-34.75,-70.5,1745374422.6344721
456,-0.04690572364734761,-0.026179938779914945,0.12326387842209953,-0.86,-2.24,9.9,64.875,-34.75,-70.5,1745374422.6515863
457,-0.20943951023931956,0.007635815477475192,-0.08944812416470939,0.06,-2.8000000000000003,10.31,64.875,-35.875,-72.1875,1745374422.6735773
458,-0.1461713248545251,0.01090830782496456,0.0,-1.52,-0.22,9.81,64.875,-35.875,-72.1875,1745374422.6942272
459,-0.33161255787892263,0.00545415391248228,0.019634954084936207,0.17,0.15,9.89,63.5,-36.1875,-70.1875,1745374422.7121327
460,-0.04690572364734761,0.006544984694978736,0.031634092692397225,-0.59,-1.1,9.85,63.5,-36.1875,-70.1875,1745374422.7345333
461,-0.044724062082354694,-0.028361600344907856,0.136353847812057,-0.6,-0.14,9.67,65.6875,-34.375,-71.375,1745374422.7523193
462,-0.008726646259971648,0.004363323129985824,0.1461713248545251,0.29,-0.89,9.88,65.6875,-34.375,-71.375,1745374422.77397
463,-0.039269908169872414,0.02399827721492203,0.08944812416470939,-0.79,1.25,10.02,65.6875,-34.375,-71.375,1745374422.7945747
464,0.04908738521234052,0.01090830782496456,0.08835729338221293,-0.33,-0.65,9.5,64.1875,-35.875,-70.5,1745374422.8131425
465,0.1712604328519436,0.03381575425739013,0.002181661564992912,-1.1400000000000001,1.03,9.85,64.1875,-35.875,-70.5,1745374422.8341784
466,0.11999138607461016,0.008726646259971648,0.04908738521234052,0.03,-0.99,9.77,62.6875,-35.5,-69.6875,1745374422.8524754
467,0.24870941840919197,0.02945243112740431,-0.06654067773228381,0.12,-0.67,9.77,62.6875,-35.5,-69.6875,1745374422.8738608
468,0.06763150851478027,0.006544984694978736,0.01090830782496456,0.19,0.29,10.3,62.6875,-35.5,-69.6875,1745374422.8942146
469,0.04799655442984406,0.03599741582238305,-0.039269908169872414,-0.21,-1.53,9.8,64.875,-35.1875,-71.75,1745374422.9132729
470,-0.19198621771937624,0.07090400086226964,-0.08399397025222712,-0.16,0.0,9.89,64.875,-35.1875,-71.75,1745374422.9339404
471,-0.1090830782496456,0.0719948316447661,-0.055632369907319255,-1.03,2.4,9.78,63.0625,-35.875,-70.5,1745374422.9528184
472,0.18653206380689397,0.04145156973486533,-0.04145156973486533,-1.11,-0.46,9.83,63.0625,-35.875,-70.5,1745374422.9740005
473,0.07417649320975901,0.01090830782496456,-0.055632369907319255,-0.33,1.49,10.01,63.0625,-35.875,-70.5,1745374422.994293
474,0.15707963267948966,0.04799655442984406,-0.06326818538479445,-0.68,2.2600000000000002,9.96,63.0625,-35.5,-67.6875,1745374423.0135212
475,0.17780541754692233,0.038179077387375956,-0.13962634015954636,-0.58,1.78,10.23,63.0625,-35.5,-67.6875,1745374423.0340924
476,-0.016362461737446838,0.009817477042468103,0.002181661564992912,-0.59,-0.99,9.57,65.25,-36.1875,-70.5,1745374423.0531492
477,-0.03490658503988659,0.006544984694978736,-0.12544553998709243,-0.36,0.03,9.39,65.25,-36.1875,-70.5,1745374423.0740902
478,0.10581058590215622,0.019634954084936207,-0.2083486794568231,0.02,-1.35,10.370000000000001,65.25,-36.1875,-70.5,1745374423.094343
479,-0.0916297857297023,-0.02399827721492203,0.09272061651219876,0.36,0.8300000000000001,9.73,63.0625,-36.5625,-69.0,1745374423.113987
480,-0.038179077387375956,0.03381575425739013,-0.006544984694978736,-0.77,-1.29,9.86,63.0625,-36.5625,-69.0,1745374423.1363058
481,-0.06872233929727672,0.009817477042468103,-0.02399827721492203,-0.8,-0.9500000000000001,9.67,63.875,-34.375,-69.0,1745374423.1540926
482,0.04363323129985824,0.039269908169872414,0.025089107997418487,-0.68,-0.77,9.73,63.875,-34.375,-69.0,1745374423.1747694
483,0.03490658503988659,0.006544984694978736,0.018544123302439753,0.13,0.54,9.65,63.875,-34.375,-69.0,1745374423.195011
484,0.1908953869368798,0.03490658503988659,0.002181661564992912,-0.85,0.26,10.09,65.25,-35.1875,-71.0,1745374423.2145522
485,0.07853981633974483,0.016362461737446838,-0.04145156973486533,-0.53,1.1400000000000001,9.92,65.25,-35.1875,-71.0,1745374423.235201
486,0.0719948316447661,0.017453292519943295,0.017453292519943295,-0.87,2.7600000000000002,9.56,62.6875,-35.875,-68.5,1745374423.254517
487,0.18544123302439752,0.032724923474893676,-0.04799655442984406,-1.1300000000000001,0.41000000000000003,9.86,62.6875,-35.875,-68.5,1745374423.2745605
488,0.13199052468207118,0.037088246604879506,-0.21925698728178766,0.35000000000000003,-1.3900000000000001,9.91,62.6875,-35.875,-68.5,1745374423.2948513
489,0.09490227807719166,0.0272707695624114,0.025089107997418487,-0.3,-2.07,9.81,64.1875,-34.75,-70.5625,1745374423.3156617
490,-0.2716168648416175,-0.014180800172453928,-0.08072147790473774,-0.58,-0.67,9.47,64.1875,-34.75,-70.5625,1745374423.3363822
491,-0.1930770485018727,0.04908738521234052,-0.04908738521234052,-0.73,-1.69,9.4,65.25,-36.5625,-70.1875,1745374423.3548815
492,-0.15489797111449674,0.004363323129985824,-0.0545415391248228,-0.51,1.78,10.18,65.25,-36.5625,-70.1875,1745374423.3756044
493,-0.06326818538479445,0.008726646259971648,-0.001090830782496456,-0.55,1.6400000000000001,10.14,65.25,-36.5625,-70.1875,1745374423.3953407
494,0.020725784867432664,-0.011999138607461015,-0.05126904677733343,-0.33,-0.66,9.63,63.875,-34.375,-68.375,1745374423.4172616
495,0.014180800172453928,-0.018544123302439753,0.026179938779914945,-0.5700000000000001,0.29,9.73,63.875,-34.375,-68.375,1745374423.4394467
496,0.09708393964218458,-0.011999138607461015,-0.061086523819801536,-0.61,1.1500000000000001,9.61,64.875,-34.0,-69.0,1745374423.4553583
497,0.026179938779914945,-0.013089969389957472,0.04908738521234052,-1.1400000000000001,0.17,10.15,64.875,-34.0,-69.0,1745374423.4769707
498,-0.10690141668465268,0.032724923474893676,-0.04036073895236887,-0.25,0.24,9.93,64.875,-34.0,-69.0,1745374423.4962358
499,-0.03599741582238305,0.06326818538479445,0.0,-0.48,0.22,9.86,63.875,-34.75,-70.5,1745374423.5174098
500,0.016362461737446838,0.020725784867432664,0.011999138607461015,-0.27,-0.11,9.98,63.875,-34.75,-70.5,1745374423.5415115
501,-0.007635815477475192,0.001090830782496456,0.04145156973486533,-0.72,-0.28,9.790000000000001,63.0625,-33.6875,-68.875,1745374423.5570276
502,-0.05781403147231216,-0.020725784867432664,-0.02181661564992912,-0.89,0.63,9.540000000000001,63.0625,-33.6875,-68.875,1745374423.5801003
503,-0.025089107997418487,-0.015271630954950384,-0.050178215994836975,-0.76,-0.53,9.83,63.875,-33.6875,-70.0625,1745374423.6078024
504,-0.1189005552921137,0.006544984694978736,-0.030543261909900768,-0.32,1.22,9.9,63.875,-33.6875,-70.0625,1745374423.6234198
505,-0.04799655442984406,0.02945243112740431,-0.06763150851478027,-0.25,-0.71,9.790000000000001,63.875,-33.6875,-70.0625,1745374423.6433506
506,-0.08944812416470939,0.04363323129985824,-0.007635815477475192,-0.55,0.0,9.68,63.0625,-34.0,-70.875,1745374423.6609972
507,0.028361600344907856,0.004363323129985824,0.0,-0.51,0.28,9.5,63.0625,-34.0,-70.875,1745374423.681605
508,0.06544984694978735,-0.009817477042468103,-0.0545415391248228,-0.46,0.0,10.14,63.0625,-33.0,-68.0625,1745374423.7017336
509,-0.05781403147231216,0.016362461737446838,-0.04036073895236887,-0.13,0.18,9.68,63.0625,-33.0,-68.0625,1745374423.7217846
510,0.003272492347489368,0.006544984694978736,0.022907446432425576,-0.74,-0.39,9.66,63.0625,-33.0,-68.0625,1745374423.7418203
511,-0.08944812416470939,0.016362461737446838,-0.05235987755982989,-0.41000000000000003,0.65,9.82,64.5,-34.0,-71.6875,1745374423.7589777
512,-0.028361600344907856,0.03599741582238305,-0.03381575425739013,-0.71,0.64,9.75,64.5,-34.0,-71.6875,1745374423.7816765
513,0.04690572364734761,0.04036073895236887,-0.03381575425739013,-0.8300000000000001,-0.29,9.84,64.5,-34.0,-71.6875,1745374423.799172
514,-0.07308566242726255,0.044724062082354694,-0.006544984694978736,-0.7000000000000001,-0.15,10.09,62.6875,-33.375,-69.25,1745374423.8216932
515,-0.019634954084936207,0.006544984694978736,0.025089107997418487,-0.44,0.06,9.540000000000001,62.6875,-33.375,-69.25,1745374423.8419294
516,0.07308566242726255,-0.006544984694978736,-0.050178215994836975,-0.29,-0.87,10.01,65.25,-32.5625,-70.0625,1745374423.859958
517,0.014180800172453928,0.003272492347489368,-0.030543261909900768,-0.54,-0.33,9.790000000000001,65.25,-32.5625,-70.0625,1745374423.8816054
518,-0.020725784867432664,0.022907446432425576,-0.05126904677733343,-0.71,0.42,9.69,65.25,-32.5625,-70.0625,1745374423.8996372
519,0.06872233929727672,0.025089107997418487,-0.039269908169872414,-0.51,0.09,9.67,64.5,-33.375,-70.0625,1745374423.9218543
520,0.12762720155208535,0.0272707695624114,0.04690572364734761,-0.65,-0.1,9.77,64.5,-33.375,-70.0625,1745374423.9418929
521,0.13744467859455345,0.04145156973486533,0.014180800172453928,-0.65,-0.07,10.040000000000001,62.6875,-33.0,-69.25,1745374423.95993
522,0.044724062082354694,0.031634092692397225,0.011999138607461015,-0.62,0.15,9.84,62.6875,-33.0,-69.25,1745374423.9818366
523,0.05890486225480862,0.016362461737446838,-0.0545415391248228,-0.6900000000000001,-0.54,10.0,65.6875,-33.0,-70.0625,1745374424.0002286
524,-0.12326387842209953,0.0272707695624114,-0.09708393964218458,-0.68,-0.96,9.74,65.6875,-33.0,-70.0625,1745374424.0220606
525,-0.23125612588924865,0.011999138607461015,-0.02181661564992912,-0.33,0.66,9.450000000000001,65.6875,-33.0,-70.0625,1745374424.042765
526,-0.14508049407202864,0.011999138607461015,-0.04581489286485115,-0.61,0.09,9.51,64.875,-33.6875,-68.875,1745374424.0603778
527,-0.017453292519943295,0.004363323129985824,-0.04363323129985824,-0.51,0.17,9.620000000000001,64.875,-33.6875,-68.875,1745374424.0820673
528,0.0818123086872342,-0.009817477042468103,0.04036073895236887,-0.62,0.84,9.620000000000001,63.875,-31.1875,-69.25,1745374424.101517
529,0.22471114119426994,-0.025089107997418487,0.07963064712224129,-0.63,0.42,9.99,63.875,-31.1875,-69.25,1745374424.1221313
530,0.09490227807719166,-0.003272492347489368,-0.016362461737446838,-0.72,-0.04,9.950000000000001,63.875,-31.1875,-69.25,1745374424.1450028
531,0.013089969389957472,0.013089969389957472,-0.050178215994836975,-0.6,0.07,9.88,65.6875,-31.875,-69.6875,1745374424.1617866
532,-0.11562806294462433,0.03599741582238305,-0.11999138607461016,-0.6900000000000001,-0.08,9.82,65.6875,-31.875,-69.6875,1745374424.1830423
533,-0.1908953869368798,0.0545415391248228,-0.1189005552921137,-0.6,0.19,9.68,63.875,-33.375,-68.875,1745374424.2014735
534,-0.07744898555724837,0.017453292519943295,-0.06544984694978735,-0.61,0.11,9.75,63.875,-33.375,-68.875,1745374424.2221415
535,0.055632369907319255,-0.018544123302439753,0.020725784867432664,-0.67,0.05,9.83,63.875,-33.375,-68.875,1745374424.242762
536,0.08944812416470939,-0.02399827721492203,0.017453292519943295,-0.7000000000000001,-0.15,9.92,63.5,-32.1875,-68.0625,1745374424.2611156
537,0.002181661564992912,-0.004363323129985824,-0.014180800172453928,-0.58,0.32,9.74,63.5,-32.1875,-68.0625,1745374424.2821753
538,0.007635815477475192,0.0,-0.03599741582238305,-0.64,0.1,9.81,66.6875,-32.5625,-70.375,1745374424.3016891
539,0.061086523819801536,-0.007635815477475192,-0.013089969389957472,-0.62,0.12,9.81,66.6875,-32.5625,-70.375,1745374424.322484
540,0.04254240051736178,-0.013089969389957472,-0.003272492347489368,-0.61,0.12,9.94,66.6875,-32.5625,-70.375,1745374424.3429294
541,-0.001090830782496456,0.001090830782496456,-0.017453292519943295,-0.55,0.1,9.83,64.5,-32.5625,-69.25,1745374424.3624277
542,-0.05126904677733343,0.014180800172453928,-0.06217735460229799,-0.56,0.14,9.66,64.5,-32.5625,-69.25,1745374424.3823965
543,-0.020725784867432664,0.02399827721492203,-0.032724923474893676,-0.67,0.05,9.89,64.5,-31.1875,-68.875,1745374424.4018228
544,0.032724923474893676,0.014180800172453928,-0.003272492347489368,-0.67,0.06,9.78,64.5,-31.1875,-68.875,1745374424.4227722
545,0.032724923474893676,0.004363323129985824,-0.004363323129985824,-0.64,0.07,9.78,64.5,-31.1875,-68.875,1745374424.4426455
546,0.032724923474893676,0.004363323129985824,-0.004363323129985824,-0.62,0.04,9.88,64.875,-32.5625,-70.0625,1745374424.462204
547,-0.08399397025222712,-0.013089969389957472,0.017453292519943295,-0.68,0.39,9.77,64.875,-32.5625,-70.0625,1745374424.482533
548,-0.01090830782496456,-0.006544984694978736,0.006544984694978736,-0.5700000000000001,0.14,9.8,64.5,-33.0,-67.25,1745374424.502871
549,0.06654067773228381,0.003272492347489368,0.02945243112740431,-0.64,0.16,9.92,64.5,-33.0,-67.25,1745374424.522945
550,0.013089969389957472,0.026179938779914945,0.001090830782496456,-0.66,0.15,9.72,64.5,-33.0,-67.25,1745374424.5428863
551,-0.031634092692397225,0.039269908169872414,-0.01090830782496456,-0.65,0.07,9.84,64.5,-31.5,-69.6875,1745374424.5624883
552,-0.028361600344907856,0.026179938779914945,-0.00545415391248228,-0.71,0.07,9.82,64.5,-31.5,-69.6875,1745374424.5826952
553,-0.017453292519943295,-0.007635815477475192,0.001090830782496456,-0.68,0.1,9.92,66.0,-33.0,-70.0625,1745374424.6027477
554,-0.02945243112740431,-0.02181661564992912,0.0,-0.68,0.08,9.77,66.0,-33.0,-70.0625,1745374424.6256127
555,-0.04799655442984406,-0.022907446432425576,-0.003272492347489368,-0.63,0.09,9.870000000000001,66.0,-33.0,-70.0625,1745374424.643411
556,-0.05672320068981571,-0.016362461737446838,-0.006544984694978736,-0.6,0.05,9.82,64.5,-31.5,-67.5625,1745374424.6673207
557,-0.050178215994836975,-0.008726646259971648,-0.006544984694978736,-0.64,0.02,9.78,64.5,-31.5,-67.5625,1745374424.685504
558,-0.03599741582238305,-0.006544984694978736,-0.003272492347489368,-0.64,0.08,9.85,64.875,-32.5625,-68.875,1745374424.703875
559,-0.020725784867432664,-0.002181661564992912,-0.002181661564992912,-0.66,0.04,9.78,64.875,-32.5625,-68.875,1745374424.7248712
560,-0.018544123302439753,0.0,-0.007635815477475192,-0.63,0.05,9.82,64.875,-32.5625,-68.875,1745374424.744174
561,-0.02181661564992912,-0.003272492347489368,-0.006544984694978736,-0.68,0.03,9.81,63.5,-33.0,-70.5,1745374424.7652678
562,-0.025089107997418487,-0.020725784867432664,-0.003272492347489368,-0.67,0.0,9.75,63.5,-33.0,-70.5,1745374424.7852633
563,-0.02399827721492203,-0.04036073895236887,0.007635815477475192,-0.62,0.07,9.93,63.5,-31.5,-67.25,1745374424.8042696
564,-0.044724062082354694,-0.04036073895236887,0.008726646259971648,-0.6,0.07,9.8,63.5,-31.5,-67.25,1745374424.825232
565,-0.08072147790473774,-0.026179938779914945,0.0,-0.59,0.03,9.88,63.5,-31.5,-67.25,1745374424.8447824
566,-0.09817477042468103,-0.018544123302439753,-0.004363323129985824,-0.58,-0.04,9.77,65.25,-32.1875,-69.6875,1745374424.8652198
567,-0.10690141668465268,-0.007635815477475192,0.0,-0.62,0.0,9.82,65.25,-32.1875,-69.6875,1745374424.886492
568,-0.11562806294462433,-0.01090830782496456,0.007635815477475192,-0.61,0.0,9.84,63.5,-33.0,-69.6875,1745374424.9056022
569,-0.09926560120717749,-0.009817477042468103,0.02181661564992912,-0.63,-0.08,9.77,63.5,-33.0,-69.6875,1745374424.9258883
570,-0.06981317007977318,-0.017453292519943295,0.019634954084936207,-0.58,-0.06,9.8,63.5,-33.0,-69.6875,1745374424.9449482
571,-0.006544984694978736,-0.032724923474893676,0.050178215994836975,-0.59,-0.15,9.77,63.875,-31.5,-70.0625,1745374424.9663904
572,0.026179938779914945,-0.04036073895236887,0.06217735460229799,-0.59,-0.02,9.83,63.875,-31.5,-70.0625,1745374424.9871235
573,0.04254240051736178,-0.031634092692397225,0.05345070834232634,-0.58,-0.14,9.84,64.5,-31.5,-71.25,1745374425.005075
574,0.026179938779914945,-0.02181661564992912,0.019634954084936207,-0.5700000000000001,-0.08,9.78,64.5,-31.5,-71.25,1745374425.0274315
575,0.0272707695624114,-0.003272492347489368,0.00545415391248228,-0.55,-0.08,9.790000000000001,64.5,-31.5,-71.25,1745374425.0452
576,0.031634092692397225,0.016362461737446838,-0.002181661564992912,-0.55,-0.06,9.84,62.6875,-31.1875,-67.6875,1745374425.0677712
577,0.03381575425739013,0.028361600344907856,-0.002181661564992912,-0.58,-0.06,9.88,62.6875,-31.1875,-67.6875,1745374425.088351
578,0.017453292519943295,0.026179938779914945,-0.003272492347489368,-0.5700000000000001,-0.01,9.83,65.6875,-31.875,-71.25,1745374425.1055024
579,0.007635815477475192,0.025089107997418487,-0.006544984694978736,-0.62,-0.03,9.790000000000001,65.6875,-31.875,-71.25,1745374425.1285007
580,-0.002181661564992912,0.028361600344907856,-0.014180800172453928,-0.62,-0.03,9.82,65.6875,-31.875,-71.25,1745374425.1455114
581,0.002181661564992912,0.030543261909900768,-0.019634954084936207,-0.62,0.04,9.790000000000001,64.5,-33.0,-70.5,1745374425.16833
582,0.0272707695624114,0.018544123302439753,-0.05672320068981571,-0.63,-0.05,9.73,64.5,-33.0,-70.5,1745374425.1886847
583,0.04254240051736178,0.006544984694978736,-0.05235987755982989,-0.65,-0.13,9.73,63.5,-31.5,-67.5625,1745374425.206071
584,0.03599741582238305,-0.002181661564992912,-0.015271630954950384,-0.63,-0.02,9.91,63.5,-31.5,-67.5625,1745374425.2289813
585,0.022907446432425576,-0.01090830782496456,-0.003272492347489368,-0.6,0.02,9.86,65.6875,-31.5,-69.6875,1745374425.248686
586,-0.006544984694978736,-0.02945243112740431,0.001090830782496456,-0.59,0.05,9.86,65.6875,-31.5,-69.6875,1745374425.2693295
587,-0.0272707695624114,-0.037088246604879506,0.037088246604879506,-0.59,0.3,9.74,65.6875,-31.5,-69.6875,1745374425.289402
588,0.03381575425739013,-0.001090830782496456,0.028361600344907856,-0.5700000000000001,0.51,9.77,63.5,-32.1875,-69.6875,1745374425.3064926
589,0.07744898555724837,0.009817477042468103,-0.02181661564992912,-0.62,-0.24,9.83,63.5,-32.1875,-69.6875,1745374425.3295383
590,-0.050178215994836975,-0.007635815477475192,-0.004363323129985824,-0.66,-0.24,9.99,63.5,-32.1875,-69.6875,1745374425.3464317
591,-0.09053895494720585,-0.044724062082354694,0.02181661564992912,-0.55,0.19,9.59,63.0625,-30.75,-69.25,1745374425.3692214
592,0.037088246604879506,-0.05890486225480862,0.07417649320975901,-0.64,-0.19,9.84,63.0625,-30.75,-69.25,1745374425.3895721
593,-0.01090830782496456,-0.05999569303730508,0.08944812416470939,-0.6,0.08,9.89,65.25,-31.5,-70.5,1745374425.4079263
594,-0.04363323129985824,-0.020725784867432664,0.04908738521234052,-0.67,0.33,9.84,65.25,-31.5,-70.5,1745374425.4296176
595,-0.001090830782496456,0.018544123302439753,0.01090830782496456,-0.67,1.52,9.67,63.0625,-32.5625,-68.875,1745374425.4482586
596,0.284706834231575,0.050178215994836975,-0.019634954084936207,-0.06,-0.65,9.58,63.0625,-32.5625,-68.875,1745374425.469549
597,-0.017453292519943295,-0.016362461737446838,0.055632369907319255,-0.78,0.7000000000000001,9.82,63.0625,-32.5625,-68.875,1745374425.4898014
598,-0.24652775684419906,0.0,-0.08726646259971647,-0.64,1.24,9.51,64.1875,-33.0,-68.875,1745374425.508287
599,0.19744037163185854,0.030543261909900768,-0.06435901616729091,-0.48,-2.5100000000000002,10.21,64.1875,-33.0,-68.875,1745374425.5297065
600,0.17998707911191522,-0.050178215994836975,0.1734420944169365,-0.8300000000000001,0.22,10.35,64.1875,-33.0,-68.875,1745374425.547992
601,-0.24980024919168842,-0.06544984694978735,-0.028361600344907856,-0.48,0.09,9.55,64.875,-33.0,-70.0625,1745374425.5698042
602,-0.13199052468207118,0.001090830782496456,-0.04254240051736178,-0.88,2.22,9.540000000000001,64.875,-33.0,-70.0625,1745374425.5900443
603,0.21380283336930536,0.0272707695624114,0.008726646259971648,-0.11,1.28,9.34,63.5,-32.5625,-68.375,1745374425.6084678
604,0.38724492778624187,-0.030543261909900768,0.1341721862470641,-0.68,0.43,10.21,63.5,-32.5625,-68.375,1745374425.6298838
605,-0.15926129424448257,-0.055632369907319255,-0.018544123302439753,-0.64,1.23,9.93,64.5,-32.5625,-70.0625,1745374425.649243
606,0.09053895494720585,0.031634092692397225,-0.1439896632895322,-0.84,-2.11,10.39,64.5,-32.5625,-70.0625,1745374425.6698694
607,-0.11017390903214205,-0.015271630954950384,0.03381575425739013,-0.77,1.61,9.78,64.5,-32.5625,-70.0625,1745374425.6902325
608,-0.27598018797160334,-0.006544984694978736,-0.04036073895236887,-0.58,3.12,9.3,63.875,-33.0,-68.5,1745374425.7092793
609,0.32834006553143325,0.022907446432425576,-0.09817477042468103,-0.6900000000000001,0.02,9.9,63.875,-33.0,-68.5,1745374425.7301042
610,0.2683443724941282,-0.07308566242726255,0.04799655442984406,-0.55,-1.19,10.18,63.5,-31.875,-67.25,1745374425.7494407
611,-0.11344640137963143,-0.013089969389957472,0.002181661564992912,-0.14,0.38,9.43,63.5,-31.875,-67.25,1745374425.7708724
612,-0.026179938779914945,0.007635815477475192,-0.14726215563702155,-0.67,1.21,9.74,63.5,-31.875,-67.25,1745374425.7923052
613,-0.1189005552921137,-0.008726646259971648,-0.015271630954950384,-0.21,-0.33,9.69,65.25,-33.375,-70.1875,1745374425.8107839
614,0.1265363707695889,-0.044724062082354694,-0.038179077387375956,-0.38,0.8200000000000001,9.540000000000001,65.25,-33.375,-70.1875,1745374425.8306253
615,0.07090400086226964,-0.04254240051736178,-0.008726646259971648,-0.62,-1.24,9.950000000000001,62.375,-33.6875,-69.6875,1745374425.850112
616,0.0272707695624114,-0.015271630954950384,0.050178215994836975,-0.18,0.21,9.52,62.375,-33.6875,-69.6875,1745374425.8703308
617,0.017453292519943295,-0.02399827721492203,-0.04254240051736178,-0.97,-0.87,10.290000000000001,62.375,-33.6875,-69.6875,1745374425.890518
618,-0.1712604328519436,-0.009817477042468103,0.028361600344907856,-0.68,2.07,9.68,64.875,-32.1875,-69.6875,1745374425.9103005
619,-0.07963064712224129,0.037088246604879506,-0.02399827721492203,-0.06,-0.65,9.58,64.875,-32.1875,-69.6875,1745374425.9306512
620,0.14726215563702155,-0.002181661564992912,0.022907446432425576,-0.11,-0.7000000000000001,9.85,64.875,-33.375,-71.6875,1745374425.9504514
621,0.07853981633974483,-0.04254240051736178,-0.02945243112740431,-0.39,-0.6,9.620000000000001,64.875,-33.375,-71.6875,1745374425.9702978
622,-0.002181661564992912,-0.009817477042468103,-0.044724062082354694,-0.84,0.8300000000000001,10.040000000000001,64.875,-33.375,-71.6875,1745374425.9906073
623,-0.031634092692397225,-0.002181661564992912,-0.04036073895236887,-0.73,-0.02,10.01,63.5,-33.6875,-69.6875,1745374426.0110843
624,-0.1189005552921137,-0.007635815477475192,-0.05235987755982989,-0.5700000000000001,1.3,9.59,63.5,-33.6875,-69.6875,1745374426.0306046
625,0.05781403147231216,0.017453292519943295,-0.04363323129985824,-0.68,0.73,9.81,65.6875,-32.1875,-69.6875,1745374426.0508935
626,0.1090830782496456,-0.017453292519943295,0.04799655442984406,-0.6900000000000001,-0.64,9.92,65.6875,-32.1875,-69.6875,1745374426.0709438
627,-0.003272492347489368,0.008726646259971648,-0.007635815477475192,-0.46,-0.26,9.8,65.6875,-32.1875,-69.6875,1745374426.0907009
628,-0.11126473981463851,0.01090830782496456,-0.013089969389957472,-1.05,1.68,9.99,64.5,-33.375,-68.5,1745374426.1115868
629,0.1189005552921137,-0.009817477042468103,-0.02945243112740431,-0.8,0.62,9.72,64.5,-33.375,-68.5,1745374426.1306674
630,0.18544123302439752,-0.07635815477475191,0.07417649320975901,-1.05,0.76,10.120000000000001,64.5,-34.0,-68.0625,1745374426.15136
631,0.02945243112740431,-0.028361600344907856,0.05126904677733343,-0.26,-1.45,9.93,64.5,-34.0,-68.0625,1745374426.1706102
632,-0.15926129424448257,0.004363323129985824,-0.02181661564992912,0.27,1.35,9.48,64.5,-34.0,-68.0625,1745374426.1907732
633,0.19744037163185854,0.007635815477475192,-0.01090830782496456,-0.58,0.47000000000000003,9.65,65.6875,-34.0,-70.5,1745374426.2114787
634,0.017453292519943295,-0.08726646259971647,0.07308566242726255,-0.6,0.46,10.120000000000001,65.6875,-34.0,-70.5,1745374426.231435
635,-0.08508480103472356,-0.03381575425739013,-0.0272707695624114,-0.37,0.46,9.67,64.875,-34.375,-68.875,1745374426.2518733
636,0.07308566242726255,-0.019634954084936207,-0.03599741582238305,-0.17,-0.45,9.78,64.875,-34.375,-68.875,1745374426.272078
637,0.07963064712224129,-0.02181661564992912,-0.017453292519943295,-0.3,0.64,9.75,64.875,-34.375,-68.875,1745374426.291115
638,0.11017390903214205,-0.032724923474893676,-0.014180800172453928,-0.28,-0.93,10.26,65.6875,-34.0,-68.5,1745374426.3129745
639,-0.06326818538479445,-0.02181661564992912,-0.04254240051736178,-0.15,0.28,9.69,65.6875,-34.0,-68.5,1745374426.3329384
640,-0.00545415391248228,0.003272492347489368,-0.06326818538479445,-0.56,-0.07,10.02,66.0,-34.75,-69.6875,1745374426.351954
641,-0.10144726277217041,-0.00545415391248228,-0.026179938779914945,-0.37,1.05,9.78,66.0,-34.75,-69.6875,1745374426.3735723
642,0.05345070834232634,0.0,-0.038179077387375956,-0.23,0.6,9.57,66.0,-34.75,-69.6875,1745374426.3917122
643,0.11562806294462433,-0.03599741582238305,0.007635815477475192,-0.8300000000000001,0.5,10.08,64.875,-34.375,-69.25,1745374426.4149315
644,0.01090830782496456,-0.002181661564992912,-0.006544984694978736,-0.29,0.0,9.950000000000001,64.875,-34.375,-69.25,1745374426.4344842
645,-0.16907877128695067,-0.014180800172453928,0.022907446432425576,-0.52,-0.73,10.01,66.375,-33.375,-69.25,1745374426.4528484
646,-0.14835298641951802,0.0,-0.09053895494720585,0.23,0.46,9.27,66.375,-33.375,-69.25,1745374426.47516
647,0.28907015736156083,-0.019634954084936207,0.013089969389957472,-0.48,-0.91,9.84,66.375,-33.375,-69.25,1745374426.4920545
648,0.07417649320975901,-0.04254240051736178,0.08944812416470939,-0.54,0.41000000000000003,9.81,65.6875,-33.6875,-70.0625,1745374426.5155423
649,-0.1308996938995747,0.020725784867432664,-0.04254240051736178,-0.07,-1.1500000000000001,10.05,65.6875,-33.6875,-70.0625,1745374426.5362525
650,-0.1810779098944117,-0.002181661564992912,-0.12544553998709243,-0.15,0.96,9.75,65.25,-34.375,-67.25,1745374426.552554
651,0.10690141668465268,-0.031634092692397225,-0.055632369907319255,-0.51,-0.03,9.6,65.25,-34.375,-67.25,1745374426.5756974
652,0.0545415391248228,-0.05126904677733343,0.0719948316447661,-0.87,1.05,9.94,65.25,-34.375,-67.25,1745374426.592576
653,0.06872233929727672,-0.009817477042468103,-0.013089969389957472,0.13,0.14,9.42,66.6875,-33.6875,-68.875,1745374426.6158729
654,0.025089107997418487,-0.014180800172453928,0.07090400086226964,-0.91,0.78,9.85,66.6875,-33.6875,-68.875,1745374426.6363046
655,-0.06326818538479445,-0.016362461737446838,-0.05345070834232634,-0.35000000000000003,0.36,9.64,64.875,-35.1875,-70.0625,1745374426.6535106
656,0.07744898555724837,-0.014180800172453928,-0.019634954084936207,-0.37,-2.12,10.3,64.875,-35.1875,-70.0625,1745374426.676221
657,-0.10471975511965978,-0.022907446432425576,-0.026179938779914945,0.03,0.73,9.64,64.875,-35.1875,-70.0625,1745374426.6930125
658,0.12871803233458182,-0.03490658503988659,-0.02399827721492203,-0.5700000000000001,-0.3,9.66,65.6875,-33.375,-68.875,1745374426.7169805
659,-0.17671458676442586,-0.03599741582238305,0.16253378659197193,-0.61,0.24,10.07,65.6875,-33.375,-68.875,1745374426.7368782
660,-0.3981532356112064,-0.025089107997418487,-0.01090830782496456,-0.11,2.67,9.33,66.375,-35.5,-69.6875,1745374426.755178
661,0.43196898986859655,0.039269908169872414,-0.08835729338221293,-0.52,-1.23,9.78,66.375,-35.5,-69.6875,1745374426.776763
662,0.2814343418840856,-0.08399397025222712,0.10581058590215622,-0.79,-1.51,10.700000000000001,66.375,-35.5,-69.6875,1745374426.7934775
663,-0.2301652951067522,-0.007635815477475192,0.014180800172453928,-0.48,1.6,9.370000000000001,65.25,-34.0,-69.25,1745374426.8171766
664,-0.061086523819801536,0.001090830782496456,-0.08944812416470939,-0.47000000000000003,0.47000000000000003,10.06,65.25,-34.0,-69.25,1745374426.8371263
665,-0.05235987755982989,-0.002181661564992912,-0.02181661564992912,-0.16,1.45,9.67,67.5,-34.0,-70.875,1745374426.8542736
666,0.11126473981463851,-0.030543261909900768,-0.05781403147231216,-0.59,-0.18,9.77,67.5,-34.0,-70.875,1745374426.8768983
667,0.1407171709420428,-0.017453292519943295,-0.007635815477475192,-0.41000000000000003,0.27,9.76,67.5,-34.0,-70.875,1745374426.8940449
668,-0.001090830782496456,-0.015271630954950384,0.0272707695624114,-0.49,0.02,9.950000000000001,66.0,-35.1875,-69.25,1745374426.9177475
669,-0.1832595714594046,0.009817477042468103,-0.016362461737446838,-0.81,1.3,9.64,66.0,-35.1875,-69.25,1745374426.937243
670,-0.0916297857297023,0.003272492347489368,-0.1461713248545251,-0.16,0.35000000000000003,9.790000000000001,66.0,-34.0,-67.5625,1745374426.9554427
671,0.09272061651219876,-0.03381575425739013,-0.061086523819801536,-0.27,-0.23,9.74,66.0,-34.0,-67.5625,1745374426.9769726
672,0.11999138607461016,-0.038179077387375956,-0.001090830782496456,-0.31,0.11,9.88,66.0,-34.0,-67.5625,1745374426.9944558
673,0.07635815477475191,-0.007635815477475192,0.018544123302439753,-0.91,0.36,9.950000000000001,66.6875,-33.6875,-71.25,1745374427.0175207
674,-0.1341721862470641,0.03381575425739013,-0.06544984694978735,0.23,-0.31,9.81,66.6875,-33.6875,-71.25,1745374427.0374262
675,-0.18762289458939044,-0.001090830782496456,-0.06326818538479445,-0.2,0.84,9.59,66.6875,-34.375,-68.875,1745374427.0552952
676,-0.05672320068981571,-0.007635815477475192,-0.16253378659197193,-0.59,0.32,9.73,66.6875,-34.375,-68.875,1745374427.0788198
677,0.032724923474893676,-0.03381575425739013,-0.039269908169872414,-0.22,-0.09,9.49,67.0625,-33.375,-68.875,1745374427.0966563
678,-0.007635815477475192,-0.013089969389957472,0.022907446432425576,-0.43,0.03,10.24,67.0625,-33.375,-68.875,1745374427.1221032
679,-0.08508480103472356,0.02945243112740431,0.0,0.27,0.26,9.42,67.0625,-33.375,-68.875,1745374427.1404223
680,-0.04363323129985824,-0.037088246604879506,-0.07417649320975901,-0.15,-0.07,9.9,68.1875,-33.6875,-70.875,1745374427.163293
681,0.011999138607461015,-0.031634092692397225,-0.11562806294462433,-0.31,-0.1,9.6,68.1875,-33.6875,-70.875,1745374427.182268
682,-0.026179938779914945,-0.020725784867432664,-0.07744898555724837,-0.09,-0.66,9.69,66.6875,-33.0,-67.25,1745374427.2004523
683,-0.0916297857297023,-0.009817477042468103,-0.0545415391248228,-0.5,0.3,9.61,66.6875,-33.0,-67.25,1745374427.2234735
684,-0.16471544815696484,0.009817477042468103,-0.04799655442984406,-0.66,0.96,9.76,66.6875,-33.0,-67.25,1745374427.2408414
685,-0.06544984694978735,0.055632369907319255,-0.09053895494720585,-0.61,0.33,9.950000000000001,68.5,-32.1875,-69.25,1745374427.2631907
686,0.044724062082354694,0.015271630954950384,0.02399827721492203,-0.28,-1.22,10.02,68.5,-32.1875,-69.25,1745374427.283376
687,0.02181661564992912,0.011999138607461015,0.16144295580947549,-0.24,-0.39,9.55,68.1875,-33.375,-70.875,1745374427.300909
688,0.008726646259971648,0.04581489286485115,0.18435040224190105,-0.23,-0.68,10.13,68.1875,-33.375,-70.875,1745374427.3244605
689,-0.16035212502697901,-0.004363323129985824,0.15489797111449674,-0.53,0.92,9.69,68.1875,-33.375,-70.875,1745374427.341283
690,0.0818123086872342,0.07090400086226964,0.06326818538479445,0.11,0.89,9.3,67.875,-32.1875,-67.25,1745374427.3643804
691,0.23889194136672387,-0.05235987755982989,0.05781403147231216,-0.6900000000000001,-1.3800000000000001,10.52,67.875,-32.1875,-67.25,1745374427.384307
692,-0.12762720155208535,-0.05235987755982989,0.0719948316447661,-0.49,0.35000000000000003,9.85,68.875,-34.0,-70.1875,1745374427.4013832
693,-0.07853981633974483,0.02181661564992912,0.011999138607461015,-0.08,0.89,9.52,68.875,-34.0,-70.1875,1745374427.425376
694,0.1636246173744684,0.04036073895236887,0.002181661564992912,-0.23,-0.3,10.0,68.875,-34.0,-70.1875,1745374427.442064
695,0.0818123086872342,-0.05126904677733343,0.008726646259971648,-0.54,-0.3,10.18,66.375,-34.75,-69.6875,1745374427.4653456
696,-0.07526732399225546,0.001090830782496456,-0.0272707695624114,-0.29,0.91,9.6,66.375,-34.75,-69.6875,1745374427.4856308
697,0.07853981633974483,0.028361600344907856,-0.08726646259971647,0.0,-0.15,9.43,68.1875,-33.375,-68.5,1745374427.5020144
698,-0.015271630954950384,-0.00545415391248228,-0.026179938779914945,-0.36,-0.49,10.120000000000001,68.1875,-33.375,-68.5,1745374427.5254211
699,-0.23561944901923448,0.006544984694978736,-0.011999138607461015,-0.37,0.12,9.8,68.1875,-33.375,-68.5,1745374427.5421367
700,-0.12871803233458182,0.022907446432425576,-0.020725784867432664,-0.26,-0.22,9.71,68.5,-34.75,-71.25,1745374427.565576
701,0.016362461737446838,0.01090830782496456,0.031634092692397225,-0.31,0.04,9.76,68.5,-34.75,-71.25,1745374427.5850859
702,0.14726215563702155,-0.002181661564992912,0.06981317007977318,-0.41000000000000003,0.05,9.77,66.6875,-33.6875,-68.875,1745374427.6024058
703,0.16144295580947549,-0.003272492347489368,0.030543261909900768,-0.35000000000000003,0.19,9.88,66.6875,-33.6875,-68.875,1745374427.625452
704,0.11126473981463851,0.01090830782496456,0.001090830782496456,-0.35000000000000003,0.22,9.86,66.6875,-33.6875,-68.875,1745374427.6433654
705,0.06544984694978735,0.018544123302439753,0.003272492347489368,-0.35000000000000003,0.22,9.91,70.0,-34.0,-70.5,1745374427.6650474
706,0.031634092692397225,0.019634954084936207,0.0,-0.35000000000000003,0.23,9.84,70.0,-34.0,-70.5,1745374427.6859367
707,0.0272707695624114,0.019634954084936207,-0.003272492347489368,-0.4,0.18,9.78,68.875,-34.375,-69.6875,1745374427.702921
708,0.03381575425739013,0.008726646259971648,-0.003272492347489368,-0.38,0.19,9.83,68.875,-34.375,-69.6875,1745374427.7265792
709,0.028361600344907856,0.001090830782496456,-0.002181661564992912,-0.38,0.2,9.81,68.875,-34.375,-69.6875,1745374427.7442021
710,0.016362461737446838,0.007635815477475192,-0.007635815477475192,-0.39,0.22,9.81,67.5,-33.6875,-67.25,1745374427.7660787
711,0.013089969389957472,0.001090830782496456,-0.002181661564992912,-0.37,0.23,9.950000000000001,67.5,-33.6875,-67.25,1745374427.7860956
712,0.025089107997418487,-0.004363323129985824,-0.003272492347489368,-0.33,0.22,9.82,70.375,-34.75,-69.25,1745374427.8033612
713,0.037088246604879506,-0.002181661564992912,-0.00545415391248228,-0.37,0.21,9.77,70.375,-34.75,-69.25,1745374427.8262959
714,0.0916297857297023,0.006544984694978736,-0.001090830782496456,-0.37,0.25,9.84,70.375,-34.75,-69.25,1745374427.843922
715,0.08617563181722002,0.013089969389957472,-0.001090830782496456,-0.36,0.28,9.85,67.0625,-34.75,-67.25,1745374427.866128
716,0.04254240051736178,0.030543261909900768,-0.008726646259971648,-0.4,0.29,9.81,67.0625,-34.75,-67.25,1745374427.8867369
717,0.037088246604879506,0.018544123302439753,-0.00545415391248228,-0.4,0.29,9.81,69.25,-34.0,-68.0625,1745374427.904953
718,0.03599741582238305,0.014180800172453928,-0.006544984694978736,-0.4,0.29,9.83,69.25,-34.0,-68.0625,1745374427.9271173
719,0.03381575425739013,-0.006544984694978736,0.0,-0.38,0.31,9.85,69.25,-35.875,-69.6875,1745374427.945577
720,0.007635815477475192,-0.001090830782496456,-0.006544984694978736,-0.36,0.32,9.73,69.25,-35.875,-69.6875,1745374427.9663768
721,-0.022907446432425576,-0.003272492347489368,-0.009817477042468103,-0.38,0.26,9.86,69.25,-35.875,-69.6875,1745374427.9864495
722,-0.018544123302439753,-0.004363323129985824,-0.006544984694978736,-0.39,0.27,9.86,67.5,-34.75,-67.25,1745374428.0068939
723,-0.002181661564992912,-0.014180800172453928,-0.00545415391248228,-0.36,0.27,9.84,67.5,-34.75,-67.25,1745374428.0271518
724,0.006544984694978736,-0.009817477042468103,-0.006544984694978736,-0.37,0.26,9.78,69.6875,-34.0,-69.25,1745374428.0467067
725,0.028361600344907856,0.001090830782496456,-0.00545415391248228,-0.35000000000000003,0.32,9.81,69.6875,-34.0,-69.25,1745374428.0666058
726,0.020725784867432664,0.006544984694978736,-0.00545415391248228,-0.38,0.3,9.83,69.6875,-34.0,-69.25,1745374428.0866582
727,-0.002181661564992912,0.001090830782496456,-0.004363323129985824,-0.41000000000000003,0.3,9.85,66.6875,-35.1875,-69.6875,1745374428.10689
728,-0.01090830782496456,-0.002181661564992912,-0.003272492347489368,-0.38,0.26,9.84,66.6875,-35.1875,-69.6875,1745374428.1268098
729,0.00545415391248228,-0.00545415391248228,-0.002181661564992912,-0.39,0.28,9.86,68.1875,-35.1875,-69.6875,1745374428.1465058
730,-0.002181661564992912,-0.016362461737446838,0.0,-0.36,0.27,9.790000000000001,68.1875,-35.1875,-69.6875,1745374428.1665826
731,-0.014180800172453928,-0.002181661564992912,-0.00545415391248228,-0.4,0.25,9.790000000000001,68.1875,-35.1875,-69.6875,1745374428.186782
732,0.00545415391248228,-0.002181661564992912,-0.00545415391248228,-0.41000000000000003,0.31,9.84,69.25,-35.875,-70.875,1745374428.206924
733,0.008726646259971648,-0.018544123302439753,0.002181661564992912,-0.4,0.34,9.85,69.25,-35.875,-70.875,1745374428.2274194
734,-0.022907446432425576,-0.028361600344907856,0.00545415391248228,-0.35000000000000003,0.33,9.84,67.875,-34.75,-68.5,1745374428.2460575
735,-0.06217735460229799,-0.016362461737446838,0.004363323129985824,-0.35000000000000003,0.25,9.82,67.875,-34.75,-68.5,1745374428.266777
736,-0.05672320068981571,-0.019634954084936207,0.0,-0.35000000000000003,0.24,9.74,67.875,-34.75,-68.5,1745374428.2868323
737,-0.04581489286485115,-0.016362461737446838,-0.001090830782496456,-0.37,0.19,9.78,70.6875,-34.375,-70.5,1745374428.306343
738,0.016362461737446838,-0.022907446432425576,0.002181661564992912,-0.37,0.22,9.85,70.6875,-34.375,-70.5,1745374428.3273563
739,0.006544984694978736,-0.01090830782496456,0.002181661564992912,-0.32,0.32,9.84,67.5,-35.5,-68.5,1745374428.3468084
740,-0.044724062082354694,0.006544984694978736,-0.003272492347489368,-0.29,0.32,9.870000000000001,67.5,-35.5,-68.5,1745374428.3669038
741,-0.050178215994836975,0.01090830782496456,-0.004363323129985824,-0.37,0.21,9.82,67.5,-35.5,-68.5,1745374428.3872342
742,-0.032724923474893676,0.004363323129985824,-0.002181661564992912,-0.37,0.22,9.86,67.5,-34.0,-68.875,1745374428.406654
743,0.018544123302439753,-0.019634954084936207,0.002181661564992912,-0.35000000000000003,0.23,9.83,67.5,-34.0,-68.875,1745374428.4302835
744,0.01090830782496456,-0.014180800172453928,0.003272492347489368,-0.35000000000000003,0.26,9.82,68.875,-34.75,-70.875,1745374428.4471693
745,-0.008726646259971648,0.0,-0.001090830782496456,-0.34,0.25,9.8,68.875,-34.75,-70.875,1745374428.4670944
746,-0.017453292519943295,0.0,0.0,-0.36,0.26,9.870000000000001,68.875,-34.75,-70.875,1745374428.4873211
747,-0.02399827721492203,-0.00545415391248228,-0.002181661564992912,-0.34,0.25,9.870000000000001,67.5,-34.75,-68.5,1745374428.5072095
748,-0.011999138607461015,-0.008726646259971648,0.0,-0.32,0.23,9.83,67.5,-34.75,-68.5,1745374428.530459
749,0.001090830782496456,-0.001090830782496456,0.001090830782496456,-0.33,0.22,9.84,68.1875,-33.6875,-69.6875,1745374428.5478842
750,0.013089969389957472,-0.002181661564992912,0.0,-0.34,0.22,9.76,68.1875,-33.6875,-69.6875,1745374428.568986
751,0.006544984694978736,0.006544984694978736,0.001090830782496456,-0.32,0.26,9.83,68.1875,-33.6875,-69.6875,1745374428.5876715
752,-0.018544123302439753,0.020725784867432664,-0.006544984694978736,-0.34,0.25,9.93,70.0,-34.75,-71.25,1745374428.6092846
753,0.0,0.007635815477475192,-0.007635815477475192,-0.38,0.19,9.78,70.0,-34.75,-71.25,1745374428.6300395
754,0.039269908169872414,-0.004363323129985824,-0.001090830782496456,-0.37,0.22,9.85,67.0625,-35.1875,-68.5,1745374428.6480196
755,0.03381575425739013,-0.008726646259971648,0.0,-0.34,0.29,9.82,67.0625,-35.1875,-68.5,1745374428.6695068
756,0.0,-0.002181661564992912,0.001090830782496456,-0.33,0.28,9.81,68.5,-33.6875,-69.25,1745374428.6938403
757,-0.038179077387375956,0.014180800172453928,-0.002181661564992912,-0.32,0.31,9.84,68.5,-33.6875,-69.25,1745374428.7103834
758,-0.04690572364734761,0.018544123302439753,-0.008726646259971648,-0.36,0.22,9.85,68.5,-33.6875,-69.25,1745374428.7310138
759,-0.004363323129985824,0.00545415391248228,-0.006544984694978736,-0.38,0.17,9.83,67.0625,-35.1875,-70.5,1745374428.7513108
760,0.03599741582238305,-0.018544123302439753,0.002181661564992912,-0.35000000000000003,0.22,9.81,67.0625,-35.1875,-70.5,1745374428.7702093
761,0.03381575425739013,-0.019634954084936207,-0.001090830782496456,-0.34,0.28,9.81,67.0625,-35.1875,-70.5,1745374428.7885597
762,0.001090830782496456,-0.00545415391248228,-0.003272492347489368,-0.31,0.27,9.84,67.875,-33.6875,-68.875,1745374428.8110778
763,-0.019634954084936207,-0.004363323129985824,-0.004363323129985824,-0.35000000000000003,0.26,9.86,67.875,-33.6875,-68.875,1745374428.8326876
764,-0.028361600344907856,-0.007635815477475192,-0.003272492347489368,-0.34,0.24,9.82,68.5,-35.1875,-70.875,1745374428.8489308
765,-0.02181661564992912,-0.006544984694978736,-0.004363323129985824,-0.35000000000000003,0.23,9.870000000000001,68.5,-35.1875,-70.875,1745374428.8716798
766,-0.007635815477475192,-0.007635815477475192,-0.001090830782496456,-0.33,0.21,9.790000000000001,68.5,-35.1875,-70.875,1745374428.8890586
767,-0.001090830782496456,0.0,0.0,-0.33,0.24,9.84,67.0625,-35.1875,-68.875,1745374428.9124618
768,-0.003272492347489368,0.004363323129985824,-0.00545415391248228,-0.34,0.23,9.81,67.0625,-35.1875,-68.875,1745374428.93311
769,-0.017453292519943295,0.0,-0.004363323129985824,-0.37,0.27,9.85,68.875,-34.75,-70.5,1745374428.952543
770,-0.030543261909900768,-0.001090830782496456,-0.004363323129985824,-0.35000000000000003,0.25,9.84,68.875,-34.75,-70.5,1745374428.972357
771,-0.030543261909900768,-0.006544984694978736,-0.002181661564992912,-0.36,0.21,9.88,68.875,-34.75,-70.5,1745374428.9893384
772,-0.02399827721492203,-0.01090830782496456,-0.004363323129985824,-0.36,0.19,9.81,67.875,-35.1875,-70.0625,1745374429.0128384
773,-0.004363323129985824,-0.018544123302439753,0.001090830782496456,-0.33,0.19,9.85,67.875,-35.1875,-70.0625,1745374429.0333903
774,0.01090830782496456,-0.020725784867432664,0.0,-0.34,0.22,9.82,67.0625,-35.1875,-68.875,1745374429.0532577
775,-0.009817477042468103,-0.019634954084936207,0.001090830782496456,-0.28,0.28,9.86,67.0625,-35.1875,-68.875,1745374429.0730155
776,-0.037088246604879506,-0.002181661564992912,-0.002181661564992912,-0.31,0.22,9.790000000000001,67.0625,-35.1875,-68.875,1745374429.0897517
777,-0.04036073895236887,0.016362461737446838,-0.006544984694978736,-0.32,0.19,9.790000000000001,68.875,-34.0,-70.875,1745374429.1132145
778,0.007635815477475192,0.022907446432425576,-0.004363323129985824,-0.33,0.15,9.83,68.875,-34.0,-70.875,1745374429.133545
779,0.04363323129985824,0.01090830782496456,-0.001090830782496456,-0.33,0.21,9.9,68.5,-35.1875,-68.0625,1745374429.1501098
780,0.030543261909900768,0.014180800172453928,-0.00545415391248228,-0.32,0.24,9.84,68.5,-35.1875,-68.0625,1745374429.1732733
781,0.017453292519943295,0.018544123302439753,-0.00545415391248228,-0.35000000000000003,0.21,9.790000000000001,68.5,-35.1875,-68.0625,1745374429.1910071
782,0.018544123302439753,0.018544123302439753,-0.006544984694978736,-0.35000000000000003,0.28,9.86,67.875,-34.0,-68.875,1745374429.213388
783,0.001090830782496456,0.026179938779914945,-0.011999138607461015,-0.32,0.24,9.86,67.875,-34.0,-68.875,1745374429.233723
784,0.009817477042468103,0.026179938779914945,-0.00545415391248228,-0.36,0.2,9.82,68.875,-35.5,-70.5,1745374429.2504852
785,0.016362461737446838,0.013089969389957472,0.001090830782496456,-0.37,0.24,9.77,68.875,-35.5,-70.5,1745374429.2733243
786,-0.001090830782496456,0.007635815477475192,0.001090830782496456,-0.36,0.29,9.81,68.875,-35.5,-70.5,1745374429.2923632
787,-0.031634092692397225,0.014180800172453928,-0.007635815477475192,-0.36,0.26,9.85,67.875,-34.375,-68.5,1745374429.3139198
788,-0.01090830782496456,0.0,-0.00545415391248228,-0.38,0.17,9.83,67.875,-34.375,-68.5,1745374429.3339546
789,0.028361600344907856,-0.02399827721492203,0.001090830782496456,-0.36,0.21,9.82,68.5,-34.375,-68.875,1745374429.3519022
790,0.03381575425739013,-0.025089107997418487,0.004363323129985824,-0.36,0.25,9.77,68.5,-34.375,-68.875,1745374429.3739119
791,0.001090830782496456,-0.004363323129985824,0.0,-0.33,0.25,9.77,67.5,-35.5,-69.6875,1745374429.3928251
792,-0.01090830782496456,0.001090830782496456,-0.003272492347489368,-0.34,0.23,9.85,67.5,-35.5,-69.6875,1745374429.4137988
793,0.002181661564992912,-0.01090830782496456,-0.004363323129985824,-0.38,0.23,9.870000000000001,67.5,-35.5,-69.6875,1745374429.434585
794,0.019634954084936207,-0.030543261909900768,-0.002181661564992912,-0.26,0.27,9.84,68.1875,-33.6875,-67.6875,1745374429.4523747
795,0.009817477042468103,-0.0272707695624114,-0.003272492347489368,-0.36,0.25,9.76,68.1875,-33.6875,-67.6875,1745374429.475596
796,0.001090830782496456,-0.013089969389957472,-0.007635815477475192,-0.34,0.21,9.85,69.25,-35.1875,-69.6875,1745374429.4947236
797,0.022907446432425576,-0.01090830782496456,-0.00545415391248228,-0.29,0.29,9.85,69.25,-35.1875,-69.6875,1745374429.5184689
798,0.019634954084936207,-0.020725784867432664,-0.003272492347489368,-0.27,0.27,9.86,69.25,-35.1875,-69.6875,1745374429.5364072
799,0.007635815477475192,-0.007635815477475192,-0.003272492347489368,-0.31,0.29,9.81,66.375,-35.5,-68.0625,1745374429.5573268
800,-0.00545415391248228,0.006544984694978736,-0.008726646259971648,-0.36,0.24,9.82,66.375,-35.5,-68.0625,1745374429.577991
801,-0.007635815477475192,0.015271630954950384,-0.007635815477475192,-0.33,0.23,9.89,68.875,-34.75,-70.5,1745374429.5970845
802,0.002181661564992912,0.019634954084936207,-0.00545415391248228,-0.34,0.24,9.81,68.875,-34.75,-70.5,1745374429.6220827
803,0.013089969389957472,0.022907446432425576,-0.002181661564992912,-0.36,0.27,9.83,68.875,-34.75,-70.5,1745374429.6352842
804,0.014180800172453928,0.014180800172453928,-0.004363323129985824,-0.36,0.25,9.81,67.875,-35.875,-70.5,1745374429.6559248
805,0.004363323129985824,-0.003272492347489368,-0.003272492347489368,-0.38,0.27,9.82,67.875,-35.875,-70.5,1745374429.677394
806,0.01090830782496456,-0.011999138607461015,0.0,-0.35000000000000003,0.23,9.86,68.1875,-35.1875,-68.5,1745374429.6951036
807,0.004363323129985824,-0.017453292519943295,0.003272492347489368,-0.32,0.3,9.83,68.1875,-35.1875,-68.5,1745374429.7162733
808,-0.03490658503988659,-0.009817477042468103,0.0,-0.32,0.28,9.81,68.1875,-35.1875,-68.5,1745374429.7368014
809,-0.044724062082354694,-0.01090830782496456,-0.003272492347489368,-0.31,0.23,9.86,68.5,-34.375,-71.25,1745374429.7543993
810,-0.013089969389957472,-0.01090830782496456,-0.002181661564992912,-0.34,0.22,9.81,68.5,-34.375,-71.25,1745374429.7765086
811,0.004363323129985824,-0.001090830782496456,-0.002181661564992912,-0.33,0.24,9.81,67.5,-35.5,-67.6875,1745374429.7946556
812,-0.020725784867432664,0.011999138607461015,-0.003272492347489368,-0.35000000000000003,0.27,9.83,67.5,-35.5,-67.6875,1745374429.8146994
813,-0.0545415391248228,0.006544984694978736,-0.003272492347489368,-0.35000000000000003,0.26,9.870000000000001,67.5,-35.5,-67.6875,1745374429.835987
814,-0.04799655442984406,-0.01090830782496456,-0.002181661564992912,-0.36,0.2,9.84,68.875,-33.6875,-69.25,1745374429.8553202
815,-0.019634954084936207,-0.02181661564992912,0.002181661564992912,-0.32,0.2,9.85,68.875,-33.6875,-69.25,1745374429.875003
816,-0.003272492347489368,-0.003272492347489368,0.007635815477475192,-0.33,0.23,9.84,68.875,-34.75,-70.5,1745374429.8951538
817,-0.01090830782496456,0.015271630954950384,0.006544984694978736,-0.32,0.24,9.88,68.875,-34.75,-70.5,1745374429.9148808
818,-0.02399827721492203,0.018544123302439753,-0.008726646259971648,-0.3,0.18,9.870000000000001,68.875,-34.75,-70.5,1745374429.9353123
819,0.03381575425739013,0.009817477042468103,-0.003272492347489368,-0.36,0.17,9.83,67.875,-34.375,-69.25,1745374429.9577088
820,0.061086523819801536,0.0,-0.001090830782496456,-0.31,0.27,9.83,67.875,-34.375,-69.25,1745374429.9750013
821,0.018544123302439753,0.006544984694978736,-0.004363323129985824,-0.32,0.29,9.83,68.875,-34.375,-68.5,1745374429.9954774
822,-0.009817477042468103,0.022907446432425576,-0.008726646259971648,-0.32,0.21,9.75,68.875,-34.375,-68.5,1745374430.0182953
823,0.011999138607461015,0.02399827721492203,-0.01090830782496456,-0.35000000000000003,0.22,9.8,68.875,-34.375,-68.5,1745374430.0357845
824,0.04690572364734761,0.011999138607461015,-0.01090830782496456,-0.37,0.22,9.8,67.5,-35.1875,-70.5,1745374430.0564003
825,0.05999569303730508,-0.003272492347489368,-0.008726646259971648,-0.37,0.23,9.83,67.5,-35.1875,-70.5,1745374430.075935
826,0.04581489286485115,-0.007635815477475192,-0.009817477042468103,-0.32,0.27,9.85,67.5,-33.6875,-68.5,1745374430.0955982
827,0.04145156973486533,0.003272492347489368,-0.011999138607461015,-0.29,0.25,9.8,67.5,-33.6875,-68.5,1745374430.1158729
828,0.06217735460229799,0.011999138607461015,-0.016362461737446838,-0.29,0.27,9.92,67.5,-33.6875,-68.5,1745374430.1364126
829,0.0719948316447661,0.020725784867432664,-0.0272707695624114,-0.33,0.31,9.85,68.875,-35.5,-70.0625,1745374430.1573532
830,0.07308566242726255,0.016362461737446838,-0.013089969389957472,-0.36,0.36,9.81,68.875,-35.5,-70.0625,1745374430.1776752
831,0.04145156973486533,0.016362461737446838,0.003272492347489368,-0.35000000000000003,0.46,9.77,67.0625,-35.5,-67.25,1745374430.1962283
832,-0.05345070834232634,0.022907446432425576,-0.002181661564992912,-0.34,0.46,9.82,67.0625,-35.5,-67.25,1745374430.221244
833,-0.12980886311707826,0.0272707695624114,-0.007635815477475192,-0.4,0.29,9.870000000000001,67.0625,-35.5,-67.25,1745374430.236674
834,-0.09381144729469522,-0.013089969389957472,-0.003272492347489368,-0.43,0.16,9.84,69.25,-34.75,-68.5,1745374430.2574506
835,-0.02399827721492203,-0.05235987755982989,0.004363323129985824,-0.37,0.18,9.75,69.25,-34.75,-68.5,1745374430.2796042
836,-0.004363323129985824,-0.05890486225480862,0.011999138607461015,-0.34,0.27,9.870000000000001,68.5,-35.5,-68.875,1745374430.2969537
837,-0.02399827721492203,-0.04145156973486533,0.00545415391248228,-0.31,0.27,9.83,68.5,-35.5,-68.875,1745374430.3179758
838,-0.02181661564992912,-0.02399827721492203,0.007635815477475192,-0.26,0.29,9.82,68.5,-35.5,-68.875,1745374430.3380105
839,-0.025089107997418487,0.007635815477475192,0.002181661564992912,-0.27,0.29,9.8,67.0625,-34.0,-68.875,1745374430.360071
840,-0.04145156973486533,0.030543261909900768,-0.003272492347489368,-0.35000000000000003,0.29,9.790000000000001,67.0625,-34.0,-68.875,1745374430.38043
841,-0.06763150851478027,0.03381575425739013,-0.003272492347489368,-0.38,0.24,9.81,69.6875,-34.75,-71.25,1745374430.3974044
842,-0.08290313946973066,0.016362461737446838,-0.006544984694978736,-0.37,0.17,9.83,69.6875,-34.75,-71.25,1745374430.4198265
843,-0.04581489286485115,-0.018544123302439753,-0.003272492347489368,-0.34,0.12,9.94,69.6875,-34.75,-71.25,1745374430.4384167
844,0.0272707695624114,-0.039269908169872414,0.007635815477475192,-0.35000000000000003,0.23,9.86,67.875,-35.875,-68.5,1745374430.4602532
845,0.05345070834232634,-0.013089969389957472,0.01090830782496456,-0.24,0.18,9.77,67.875,-35.875,-68.5,1745374430.4808686
846,0.0272707695624114,0.015271630954950384,-0.008726646259971648,-0.29,0.24,9.83,68.5,-34.0,-69.6875,1745374430.497691
847,0.025089107997418487,0.039269908169872414,-0.01090830782496456,-0.31,0.19,9.84,68.5,-34.0,-69.6875,1745374430.5202777
848,0.02945243112740431,0.022907446432425576,-0.006544984694978736,-0.37,0.22,9.9,68.5,-34.0,-69.6875,1745374430.5389569
849,0.028361600344907856,0.01090830782496456,-0.003272492347489368,-0.35000000000000003,0.27,9.84,68.5,-35.1875,-70.875,1745374430.5607073
850,0.038179077387375956,0.002181661564992912,0.0,-0.36,0.26,9.76,68.5,-35.1875,-70.875,1745374430.5813136
851,0.00545415391248228,-0.01090830782496456,0.002181661564992912,-0.35000000000000003,0.36,9.81,67.5,-34.0,-67.6875,1745374430.6012492
852,-0.06981317007977318,-0.008726646259971648,-0.004363323129985824,-0.37,0.31,9.78,67.5,-34.0,-67.6875,1745374430.6209123
853,-0.08399397025222712,-0.014180800172453928,-0.00545415391248228,-0.39,0.18,9.89,67.5,-34.0,-67.6875,1745374430.6388185
854,-0.04363323129985824,-0.044724062082354694,0.006544984694978736,-0.34,0.22,9.83,68.875,-35.5,-68.875,1745374430.660882
855,0.014180800172453928,-0.032724923474893676,0.08072147790473774,-0.32,0.49,9.83,68.875,-35.5,-68.875,1745374430.681437
856,0.028361600344907856,-0.017453292519943295,0.06544984694978735,-0.47000000000000003,0.67,9.77,67.875,-34.75,-68.875,1745374430.6984928
857,0.1439896632895322,0.011999138607461015,-0.0272707695624114,-0.26,0.34,9.78,67.875,-34.75,-68.875,1745374430.721487
858,-0.15162547876700738,-0.04036073895236887,-0.007635815477475192,-0.51,0.68,9.77,67.875,-34.75,-68.875,1745374430.739005
859,-0.08290313946973066,-0.00545415391248228,-0.00545415391248228,-0.35000000000000003,0.38,9.950000000000001,68.5,-34.375,-68.5,1745374430.7616804
860,-0.07308566242726255,-0.04145156973486533,0.07744898555724837,-0.43,0.54,9.91,68.5,-34.375,-68.5,1745374430.782108
861,-0.014180800172453928,-0.013089969389957472,0.1090830782496456,-0.58,0.72,9.86,68.875,-35.1875,-72.0625,1745374430.7989626
862,0.016362461737446838,0.05126904677733343,0.01090830782496456,-0.58,0.16,10.01,68.875,-35.1875,-72.0625,1745374430.8217897
863,-0.11453723216212788,0.016362461737446838,-0.09708393964218458,-0.98,1.95,9.8,68.875,-35.1875,-72.0625,1745374430.8400738
864,0.18435040224190105,0.05890486225480862,0.038179077387375956,-0.63,0.84,9.34,66.6875,-35.1875,-68.875,1745374430.862181
865,-0.3043417883165112,-0.0916297857297023,0.018544123302439753,-0.46,1.51,9.69,66.6875,-35.1875,-68.875,1745374430.8820245
866,0.1908953869368798,0.13962634015954636,-0.1636246173744684,-1.82,4.08,8.790000000000001,69.25,-34.375,-69.6875,1745374430.9001923
867,0.23343778745424157,0.020725784867432664,-0.1308996938995747,-0.47000000000000003,-1.76,10.77,69.25,-34.375,-69.6875,1745374430.922114
868,-0.47669305195095124,-0.06654067773228381,0.003272492347489368,-0.92,1.94,9.540000000000001,69.25,-34.375,-69.6875,1745374430.9405115
869,0.004363323129985824,0.09599310885968812,-0.044724062082354694,1.6,0.18,9.73,67.875,-35.5,-68.875,1745374430.9620473
870,0.3981532356112064,-0.018544123302439753,-0.210530341021816,-0.62,1.08,9.48,67.875,-35.5,-68.875,1745374430.982245
871,-0.5999569303730508,-0.05890486225480862,-0.030543261909900768,-0.8300000000000001,2.57,9.63,68.875,-34.375,-69.6875,1745374431.0005622
872,0.7886706557449377,0.11344640137963143,-0.33161255787892263,-1.95,-6.640000000000001,12.1,68.875,-34.375,-69.6875,1745374431.0221624
873,-0.6185010536754906,-0.0916297857297023,0.01090830782496456,-1.01,5.36,9.290000000000001,70.375,-34.375,-70.875,1745374431.0413675
874,0.24652775684419906,0.06435901616729091,-0.24107360293171676,-0.12,-6.1000000000000005,10.52,70.375,-34.375,-70.875,1745374431.0624325
875,0.2378011105842274,-0.022907446432425576,-0.10471975511965978,-0.26,-2.14,10.19,70.375,-34.375,-70.875,1745374431.082516
876,-0.3436116964863836,-0.032724923474893676,-0.08835729338221293,-0.34,4.74,8.72,69.6875,-33.375,-68.0625,1745374431.1010637
877,0.28361600344907856,0.01090830782496456,-0.21380283336930536,-0.79,-1.6300000000000001,10.81,69.6875,-33.375,-68.0625,1745374431.1235676
878,-0.15707963267948966,-0.015271630954950384,-0.10690141668465268,0.31,1.42,9.27,71.875,-33.0,-68.875,1745374431.1416574
879,0.09490227807719166,-0.04363323129985824,-0.27707101875409984,-0.62,0.45,9.6,71.875,-33.0,-68.875,1745374431.1623445
880,-0.044724062082354694,-0.019634954084936207,-0.2814343418840856,-0.01,-1.46,10.1,71.875,-33.0,-68.875,1745374431.1824527
881,-0.10144726277217041,-0.0272707695624114,-0.21489366415180183,-0.18,0.87,9.74,70.25,-33.375,-69.25,1745374431.2018988
882,0.04254240051736178,-0.04254240051736178,-0.11235557059713497,-0.54,1.3900000000000001,9.98,70.25,-33.375,-69.25,1745374431.2226567
883,0.0545415391248228,-0.025089107997418487,-0.18980455615438332,-0.23,-1.61,10.5,70.25,-31.875,-68.0625,1745374431.2425478
884,0.044724062082354694,-0.009817477042468103,-0.20289452554434081,0.09,0.19,9.67,70.25,-31.875,-68.0625,1745374431.2625365
885,-0.16471544815696484,0.004363323129985824,-0.20616701789183017,-0.63,1.94,9.32,70.25,-31.875,-68.0625,1745374431.2826629
886,-0.07853981633974483,-0.04036073895236887,-0.12762720155208535,-0.31,0.0,9.97,72.375,-32.5625,-70.5,1745374431.3023622
887,-0.044724062082354694,-0.004363323129985824,-0.10362892433716332,-0.09,-0.44,9.93,72.375,-32.5625,-70.5,1745374431.323309
888,-0.04254240051736178,-0.015271630954950384,-0.07090400086226964,-0.22,0.53,9.57,70.5625,-32.1875,-69.6875,1745374431.342247
889,0.055632369907319255,-0.05235987755982989,-0.0719948316447661,-0.32,0.68,9.73,70.5625,-32.1875,-69.6875,1745374431.3626947
890,0.022907446432425576,-0.05999569303730508,-0.06217735460229799,-0.79,-0.53,9.84,70.5625,-32.1875,-69.6875,1745374431.3832128
891,-0.36979163526629855,-0.004363323129985824,-0.02181661564992912,-1.1,3.83,9.42,74.25,-31.1875,-71.25,1745374431.4025247
892,0.0545415391248228,0.013089969389957472,-0.07308566242726255,-0.32,-2.02,10.59,74.25,-31.1875,-71.25,1745374431.4231296
893,-0.11562806294462433,0.008726646259971648,-0.04363323129985824,-0.37,0.92,9.83,72.375,-31.5,-70.0625,1745374431.4435008
894,-0.044724062082354694,-0.009817477042468103,-0.1265363707695889,0.07,0.85,9.61,72.375,-31.5,-70.0625,1745374431.4647186
895,-0.04690572364734761,-0.08617563181722002,-0.19416787928436915,-0.7000000000000001,1.36,9.540000000000001,72.375,-31.5,-70.0625,1745374431.4842172
896,0.061086523819801536,-0.07526732399225546,-0.06435901616729091,-0.1,-2.88,9.89,72.375,-31.1875,-70.0625,1745374431.5049875
897,-0.10035643198967395,-0.07526732399225546,0.009817477042468103,-0.18,0.22,9.91,72.375,-31.1875,-70.0625,1745374431.5249913
898,-0.18762289458939044,-0.05781403147231216,0.08508480103472356,-1.09,0.8300000000000001,10.450000000000001,74.5625,-31.1875,-72.5,1745374431.5436037
899,0.21380283336930536,-0.050178215994836975,0.09708393964218458,-0.18,-1.6400000000000001,9.92,74.5625,-31.1875,-72.5,1745374431.5640604
900,-0.013089969389957472,-0.04145156973486533,0.007635815477475192,-0.47000000000000003,1.85,9.290000000000001,74.5625,-31.1875,-72.5,1745374431.5837488
901,0.05126904677733343,-0.03381575425739013,0.013089969389957472,-0.1,0.22,10.1,73.5625,-31.5,-70.5,1745374431.6054556
902,-0.017453292519943295,-0.0916297857297023,0.05999569303730508,-0.43,0.58,9.96,73.5625,-31.5,-70.5,1745374431.6258926
903,0.09053895494720585,-0.06217735460229799,-0.05235987755982989,0.18,-1.08,9.77,73.5625,-31.1875,-70.5,1745374431.6441395
904,-0.011999138607461015,-0.0272707695624114,-0.07853981633974483,0.04,0.46,9.92,73.5625,-31.1875,-70.5,1745374431.6664267
905,-0.06217735460229799,-0.06654067773228381,-0.026179938779914945,-1.24,1.2,9.82,73.5625,-31.1875,-70.5,1745374431.6841233
906,0.01090830782496456,0.016362461737446838,-0.04581489286485115,0.01,-0.9400000000000001,9.63,73.875,-32.5625,-71.6875,1745374431.7066097
907,-0.08072147790473774,-0.002181661564992912,0.07417649320975901,-1.46,2.5100000000000002,9.68,73.875,-32.5625,-71.6875,1745374431.7273936
908,0.25743606466916363,-0.008726646259971648,0.05126904677733343,0.28,-2.4,9.99,73.5625,-32.1875,-69.25,1745374431.74435
909,-0.2203478180642841,-0.032724923474893676,0.038179077387375956,-1.61,3.31,9.69,73.5625,-32.1875,-69.25,1745374431.7673635
910,0.35124751196385884,-0.011999138607461015,-0.025089107997418487,0.05,-2.16,10.07,73.5625,-32.1875,-69.25,1745374431.784587
911,-0.10690141668465268,-0.05672320068981571,0.050178215994836975,-1.43,2.3000000000000003,9.84,74.25,-33.0,-72.5625,1745374431.8078487
912,0.15707963267948966,-0.020725784867432664,0.10362892433716332,-0.26,-0.5,9.98,74.25,-33.0,-72.5625,1745374431.8282793
913,-0.07744898555724837,-0.05999569303730508,0.2519819107566813,-0.38,-0.58,10.02,74.25,-34.375,-70.5,1745374431.8449357
914,-0.09490227807719166,0.04690572364734761,0.18544123302439752,-1.16,3.5,9.41,74.25,-34.375,-70.5,1745374431.8684132
915,0.5170537909033202,0.08726646259971647,0.07744898555724837,0.29,-3.18,10.5,74.25,-34.375,-70.5,1745374431.8849728
916,-0.2683443724941282,-0.09381144729469522,0.1341721862470641,-0.58,0.33,10.03,75.0,-35.5,-72.0625,1745374431.908302
917,-0.2181661564992912,-0.07417649320975901,0.18871372537188688,-0.36,0.7000000000000001,9.77,75.0,-35.5,-72.0625,1745374431.9291954
918,0.42978732830360367,0.07526732399225546,-0.11017390903214205,1.3800000000000001,1.8900000000000001,9.08,73.875,-36.1875,-71.6875,1745374431.945974
919,0.16580627893946132,-0.04363323129985824,0.16907877128695067,-0.26,-3.27,10.75,73.875,-36.1875,-71.6875,1745374431.9689567
920,-0.4385139745635753,-0.14289883250703572,0.1189005552921137,-0.49,1.2,9.82,73.875,-36.1875,-71.6875,1745374431.9856522
921,0.07635815477475191,0.04254240051736178,-0.05126904677733343,-0.68,4.5200000000000005,8.950000000000001,73.1875,-37.0,-69.6875,1745374432.0089104
922,0.4494222823885399,-0.06435901616729091,-0.009817477042468103,0.0,-4.99,10.88,73.1875,-37.0,-69.6875,1745374432.029314
923,-0.433059820651093,-0.13962634015954636,0.09272061651219876,-0.71,1.6300000000000001,9.6,75.75,-37.6875,-71.25,1745374432.0461912
924,0.0719948316447661,-0.016362461737446838,0.011999138607461015,2.25,-4.08,10.31,75.75,-37.6875,-71.25,1745374432.0709794
925,0.31306843457648287,-0.050178215994836975,0.11780972450961724,-1.82,1.23,10.17,75.75,-37.6875,-71.25,1745374432.086372
926,-0.07853981633974483,-0.0818123086872342,0.1090830782496456,-0.49,-0.02,10.36,72.375,-37.375,-70.5,1745374432.1092715
927,-0.04581489286485115,-0.05890486225480862,0.009817477042468103,-0.08,1.34,9.63,72.375,-37.375,-70.5,1745374432.130046
928,0.20398535632683726,-0.07744898555724837,0.10144726277217041,-0.35000000000000003,-3.4,10.790000000000001,73.875,-38.0,-69.6875,1745374432.14667
929,-0.14508049407202864,-0.19634954084936207,0.09053895494720585,0.13,0.14,9.64,73.875,-38.0,-69.6875,1745374432.1698349
930,0.04254240051736178,-0.039269908169872414,0.13308135546456762,0.21,0.08,9.59,73.875,-38.0,-69.6875,1745374432.1867294
931,0.05672320068981571,-0.04036073895236887,0.025089107997418487,0.19,0.4,9.77,74.25,-39.5,-71.6875,1745374432.2093992
932,0.06763150851478027,0.04799655442984406,0.002181661564992912,0.04,0.4,9.78,74.25,-39.5,-71.6875,1745374432.229664
933,0.07635815477475191,0.07963064712224129,0.001090830782496456,0.02,0.47000000000000003,9.92,72.375,-39.1875,-70.0625,1745374432.2477138
934,0.07744898555724837,0.0916297857297023,0.008726646259971648,-0.03,0.31,9.77,72.375,-39.1875,-70.0625,1745374432.269648
935,0.08726646259971647,0.07526732399225546,0.016362461737446838,-0.08,0.27,9.86,72.375,-39.1875,-70.0625,1745374432.2874057
936,0.10471975511965978,0.03381575425739013,0.031634092692397225,-0.07,0.54,9.83,73.5625,-39.875,-70.5,1745374432.309428
