Packet number,Gyroscope X (deg/s),Gyroscope Y (deg/s),Gyroscope Z (deg/s),Accelerometer X (g),Accelerometer Y (g),Accelerometer Z (g),Magnetometer X (G),Magnetometer Y (G),Magnetometer Z (G)
1,0,0,0.005454154,-0.3,-0.26,9.38,0,0,0
2,0,0.001090831,0,-0.31,-0.26,9.38,0,0,0
3,0,-0.001090831,0,-0.3,-0.28,9.39,0,0,0
4,0.002181662,0,-0.001090831,-0.32,-0.22,9.39,0,0,0
5,-0.001090831,-0.008726646,0.001090831,-0.31,-0.24,9.38,0,0,0
6,0,0,0,-0.29,-0.25,9.41,0,0,0
7,0.001090831,-0.001090831,-0.003272492,-0.3,-0.25,9.41,0,0,0
8,0.001090831,0.002181662,-0.002181662,-0.33,-0.25,9.36,0,0,0
9,-0.002181662,-0.002181662,0,-0.33,-0.24,9.39,0,0,0
10,0.001090831,-0.003272492,0,-0.3,-0.26,9.39,0,0,0
11,0,-0.002181662,0,-0.32,-0.23,9.42,0,0,0
12,0.001090831,-0.002181662,-0.001090831,-0.3,-0.23,9.37,0,0,0
13,0,-0.002181662,0.001090831,-0.3,-0.25,9.39,0,0,0
14,-0.001090831,-0.001090831,0.001090831,-0.32,-0.25,9.43,0,0,0
15,0,-0.005454154,-0.001090831,-0.31,-0.25,9.41,0,0,0
16,0,-0.002181662,0,-0.32,-0.25,9.38,0,0,0
17,0.001090831,-0.001090831,-0.001090831,-0.33,-0.25,9.39,0,0,0
18,-0.001090831,-0.002181662,-0.001090831,-0.3,-0.26,9.41,0,0,0
19,-0.001090831,-0.002181662,0,-0.29,-0.23,9.39,0,0,0
20,0.002181662,-0.005454154,0.001090831,-0.32,-0.24,9.4,0,0,0
21,0,-0.002181662,0,-0.31,-0.24,9.4,0,0,0
22,-0.001090831,-0.001090831,-0.001090831,-0.33,-0.25,9.39,0,0,0
23,0.002181662,-0.001090831,0,-0.3,-0.25,9.36,0,0,0
24,0.001090831,-0.001090831,0,-0.3,-0.27,9.39,0,0,0
25,-0.001090831,-0.003272492,-0.001090831,-0.32,-0.22,9.39,0,0,0
26,0,-0.002181662,0.001090831,-0.28,-0.24,9.39,0,0,0
27,-0.001090831,-0.002181662,0,-0.32,-0.23,9.4,0,0,0
28,0.001090831,0.001090831,-0.002181662,-0.32,-0.25,9.41,0,0,0
29,-0.001090831,0,-0.001090831,-0.32,-0.23,9.36,0,0,0
30,-0.001090831,-0.002181662,0,-0.32,-0.26,9.38,0,0,0
31,0,-0.004363323,0,-0.29,-0.25,9.4,0,0,0
32,0.001090831,-0.001090831,0.001090831,-0.28,-0.25,9.42,0,0,0
33,0,0,0,-0.29,-0.25,9.42,0,0,0
34,0.001090831,-0.003272492,0.003272492,-0.3,-0.22,9.4,0,0,0
35,0.001090831,-0.001090831,-0.001090831,-0.34,-0.24,9.39,0,0,0
36,-0.002181662,-0.002181662,-0.001090831,-0.33,-0.24,9.38,0,0,0
37,-0.002181662,0.001090831,-0.002181662,-0.31,-0.25,9.39,0,0,0
38,-0.001090831,-0.002181662,-0.001090831,-0.3,-0.22,9.4,0,0,0
39,-0.001090831,0,0.001090831,-0.3,-0.23,9.4,0,0,0
40,-0.001090831,-0.002181662,0.001090831,-0.29,-0.23,9.41,0,0,0
41,0.002181662,-0.002181662,0,-0.32,-0.26,9.39,0,0,0
42,-0.001090831,-0.003272492,0.001090831,-0.31,-0.26,9.4,0,0,0
43,0,0,-0.001090831,-0.33,-0.27,9.39,0,0,0
44,0,-0.005454154,0,-0.31,-0.26,9.39,0,0,0
45,0,-0.002181662,0.001090831,-0.31,-0.25,9.38,0,0,0
46,0,-0.005454154,-0.001090831,-0.29,-0.24,9.44,0,0,0
47,0,-0.001090831,0,-0.29,-0.25,9.41,0,0,0
48,-0.001090831,-0.001090831,0.002181662,-0.3,-0.26,9.39,0,0,0
49,0.003272492,0,-0.002181662,-0.31,-0.25,9.4,0,0,0
50,0.001090831,-0.001090831,0,-0.31,-0.25,9.43,0,0,0
51,0,0.001090831,-0.002181662,-0.29,-0.26,9.42,0,0,0
52,-0.001090831,0.002181662,-0.001090831,-0.31,-0.26,9.39,0,0,0
53,0,0.002181662,-0.001090831,-0.31,-0.24,9.42,0,0,0
54,0.002181662,0,0,-0.31,-0.24,9.41,0,0,0
55,0.001090831,0.001090831,-0.001090831,-0.31,-0.24,9.38,0,0,0
56,0,0.001090831,0,-0.3,-0.24,9.39,0,0,0
57,0.001090831,0,0.001090831,-0.3,-0.26,9.41,0,0,0
58,0,0.002181662,-0.001090831,-0.29,-0.26,9.4,0,0,0
59,0,0.002181662,0,-0.32,-0.25,9.39,0,0,0
60,0,-0.001090831,0,-0.32,-0.23,9.38,0,0,0
61,0.001090831,0,0,-0.31,-0.23,9.39,0,0,0
62,-0.001090831,-0.002181662,-0.003272492,-0.3,-0.23,9.38,0,0,0
63,0.001090831,-0.003272492,-0.001090831,-0.31,-0.23,9.39,0,0,0
64,-0.001090831,0,0,-0.31,-0.25,9.43,0,0,0
65,-0.001090831,0.001090831,0.001090831,-0.31,-0.25,9.39,0,0,0
66,0,0.002181662,-0.002181662,-0.32,-0.27,9.39,0,0,0
67,-0.001090831,-0.003272492,0.001090831,-0.32,-0.24,9.41,0,0,0
68,0,-0.002181662,-0.001090831,-0.31,-0.25,9.39,0,0,0
69,-0.001090831,0,0.002181662,-0.29,-0.23,9.37,0,0,0
70,0.001090831,-0.001090831,0.001090831,-0.3,-0.24,9.4,0,0,0
71,0,-0.001090831,-0.001090831,-0.3,-0.22,9.38,0,0,0
72,0.001090831,0.002181662,0.001090831,-0.3,-0.22,9.4,0,0,0
73,0,0.001090831,-0.001090831,-0.33,-0.25,9.36,0,0,0
74,0.001090831,0,0.002181662,-0.29,-0.24,9.39,0,0,0
75,-0.001090831,0.002181662,-0.001090831,-0.3,-0.24,9.39,0,0,0
76,0.001090831,0.004363323,-0.003272492,-0.3,-0.24,9.4,0,0,0
77,0,0.011999139,-0.004363323,5.95,-4.97,9.36,0,0,0
78,0.008726646,0.020725785,-2.49582083,5.81,-2.21,9.29,0,0,0
79,0.010908308,-0.0141808,-4.792019628,2.43,-1.29,9.33,0,0,0
80,0.029452431,-0.206167018,-6.405358355,-2.85,-0.35,9.23,0,0,0
81,-0.06981317,-0.392699082,-5.552328683,-4.51,-0.11,9.43,0,0,0
82,-0.038179077,-0.11126474,-3.399028718,-4.5,1.63,9.37,0,0,0
83,0.015271631,0.004363323,0.938114473,-2.16,2.36,9.59,0,0,0
84,0.037088247,-0.061086524,2.143482488,-0.26,0.94,9.31,0,0,0
85,0.081812309,0.074176493,3.715369645,-0.94,-1.55,9.51,0,0,0
86,0.035997416,0.064359016,3.810271923,-0.82,-0.97,9.41,0,0,0
87,-0.004363323,0.026179939,3.664100598,-0.3,0.22,9.36,0,0,0
88,0.029452431,0.035997416,3.556108351,-0.28,-1.14,9.47,0,0,0
89,0.047996554,0.047996554,3.391392903,-0.36,-0.87,9.47,0,0,0
90,0.0141808,0.017453293,3.073961145,0.06,-0.25,9.3,0,0,0
91,0.013089969,-0.008726646,2.075850979,0.2,-0.61,9.38,0,0,0
92,-0.004363323,0.004363323,1.391900078,0.25,-0.68,9.4,0,0,0
93,0.009817477,0.003272492,0.582503638,-0.3,-0.19,9.42,0,0,0
94,-0.003272492,0.007635815,-0.062177355,-0.19,-0.22,9.4,0,0,0
95,-0.001090831,0,-0.002181662,-0.22,-0.26,9.36,0,0,0
96,0.001090831,0.001090831,0,-0.22,-0.25,9.38,0,0,0
97,0,0.005454154,-0.002181662,-0.23,-0.28,9.37,0,0,0
98,0.004363323,0.050178216,-0.005454154,-0.16,-0.26,9.37,0,0,0
99,0.003272492,0.094902278,-0.007635815,-0.22,-0.27,9.41,0,0,0
100,0.008726646,0.131990525,-0.011999139,-0.22,-0.23,9.39,0,0,0
101,0,0.146171325,-0.0283616,-0.36,-0.23,9.4,0,0,0
102,-0.001090831,0.094902278,-0.034906585,-0.36,-0.26,9.37,0,0,0
103,-0.004363323,0.046905724,-0.023998277,-0.33,-0.25,9.41,0,0,0
104,-0.001090831,0,-0.002181662,-0.29,-0.26,9.39,0,0,0
105,0,-0.017453293,0,-0.23,-0.25,9.39,0,0,0
106,0.001090831,0.029452431,-0.003272492,-0.29,-0.24,9.4,0,0,0
107,-0.001090831,0.043633231,-0.006544985,-0.34,-0.26,9.41,0,0,0
108,-0.004363323,0.042542401,-0.010908308,-0.32,-0.22,9.4,0,0,0
109,-0.001090831,0.001090831,-0.007635815,-0.32,-0.24,9.39,0,0,0
110,0.001090831,-0.003272492,-0.001090831,-0.32,-0.26,9.38,0,0,0
111,0.001090831,-0.001090831,-0.001090831,-0.29,-0.27,9.41,0,0,0
112,-0.001090831,-0.003272492,-0.002181662,-0.29,-0.26,9.41,0,0,0
113,0,-0.004363323,-0.002181662,-0.26,-0.24,9.4,0,0,0
114,0.003272492,-0.001090831,-0.002181662,-0.31,-0.24,9.4,0,0,0
115,0.001090831,-0.003272492,-0.001090831,-0.3,-0.25,9.39,0,0,0
116,0.001090831,0.001090831,-0.001090831,-0.33,-0.25,9.39,0,0,0
117,-0.002181662,-0.003272492,0.002181662,-0.3,-0.26,9.39,0,0,0
118,0.001090831,-0.002181662,0,-0.29,-0.24,9.42,0,0,0
119,-0.003272492,0.006544985,0.008726646,-0.35,-0.22,9.4,0,0,0
120,-0.008726646,0.016362462,0.063268185,-0.72,-0.26,9.41,0,0,0
121,-0.009817477,0.037088247,0.918479519,-1.17,-0.49,9.38,0,0,0
122,-0.043633231,0.071994832,1.202095522,-1.09,-0.17,9.4,0,0,0
123,-0.017453293,0.023998277,1.117010721,4.74,-0.03,9.26,0,0,0
124,0,0.021816616,1.174824753,-0.36,0.19,9.42,0,0,0
125,-0.032724923,0.043633231,1.011200135,-0.67,0.24,9.39,0,0,0
126,-0.033815754,0.047996554,0.832303887,-1.13,-0.21,9.39,0,0,0
127,0.007635815,0.011999139,0.088357293,-0.32,-0.33,9.36,0,0,0
128,0.008726646,-0.001090831,0.006544985,-0.42,-0.34,9.4,0,0,0
129,0.006544985,0.001090831,0.092720617,-0.22,-0.32,9.41,0,0,0
130,0.022907446,-0.032724923,0.259617726,-0.49,-0.35,9.43,0,0,0
131,0.052359878,-0.062177355,0.314159265,-0.4,-0.41,9.39,0,0,0
132,0.02727077,-0.040360739,0.415606528,-0.29,-0.12,9.42,0,0,0
133,0.021816616,-0.099265601,0.595593607,-0.26,-0.12,9.39,0,0,0
134,0.010908308,-0.067631509,0.626136869,-0.17,-0.27,9.42,0,0,0
135,-0.008726646,0.058904862,0.461421421,-0.36,-0.28,9.43,0,0,0
136,-0.022907446,0.065449847,0.339248373,-0.29,-0.21,9.42,0,0,0
137,-0.008726646,-0.015271631,0.203985356,-0.24,-0.23,9.39,0,0,0
138,0.003272492,-0.056723201,0.253072742,-0.08,-0.27,9.36,0,0,0
139,0.005454154,-0.050178216,0.199622033,-0.1,-0.24,9.38,0,0,0
140,0.002181662,-0.02727077,0.030543262,-0.09,-0.22,9.39,0,0,0
141,-0.006544985,0.050178216,-0.013089969,-0.32,-0.27,9.42,0,0,0
142,-0.004363323,0.0141808,-0.04145157,-0.27,-0.25,9.39,0,0,0
143,0.001090831,-0.001090831,-0.080721478,-0.23,-0.26,9.38,0,0,0
144,-0.002181662,-0.016362462,-0.271616865,-0.51,-0.25,9.4,0,0,0
145,-0.002181662,0.013089969,-0.399244066,-0.37,-0.27,9.4,0,0,0
146,-0.004363323,-0.005454154,-0.555232868,-0.27,-0.27,9.39,0,0,0
147,-0.003272492,-0.008726646,-0.615228561,-0.27,-0.21,9.38,0,0,0
148,-0.005454154,-0.005454154,-0.470148067,-0.18,-0.21,9.42,0,0,0
149,-0.004363323,-0.010908308,-0.050178216,-0.66,-0.13,9.38,0,0,0
150,-0.007635815,0.095993109,1.065741674,-0.73,-0.18,9.37,0,0,0
151,-0.035997416,0.155988802,1.574068819,-1.06,-0.59,9.37,0,0,0
152,-0.031634093,0.12544554,1.793325806,-1.02,-0.69,9.42,0,0,0
153,-0.002181662,0.015271631,1.781326668,-0.45,0.57,9.39,0,0,0
154,0.016362462,-0.006544985,1.00356432,0.7,-0.65,9.39,0,0,0
155,0.04145157,0.008726646,0.395971574,-0.1,-0.46,9.57,0,0,0
156,0.301069296,-0.101447263,-0.019634954,-0.2,-1.02,10.08,0,0,0
157,0.54323373,-0.22252948,-0.495237175,-0.7,-0.68,9.7,0,0,0
158,0.907571211,-0.291251819,-0.727584132,-1.65,-0.62,9.79,0,0,0
159,1.03192592,-0.235619449,-0.664315947,-0.47,-0.21,9.93,0,0,0
160,0.980656873,-0.425424005,-0.928296996,0.68,0.52,10.41,0,0,0
161,0.638136008,0.665406777,-0.484328867,-0.28,1.68,10.6,0,0,0
162,0.085084801,1.109374906,0.032724923,-0.96,1.59,9.73,0,0,0
163,-0.819213918,1.130100691,0.344702527,-1.53,0.54,8.98,0,0,0
164,-0.681769239,0.629409362,0.436332313,-1.13,-0.21,10.4,0,0,0
165,-0.232346957,0.30652345,0.119991386,-0.77,0,10.79,0,0,0
166,0.09708394,0.113446401,-0.277071019,-0.59,-0.02,10.52,0,0,0
167,0.143989663,0.523598776,-0.734129117,-2.36,0.1,11.59,0,0,0
168,-0.305432619,0.470148067,-0.806123948,-1.63,0.08,11.24,0,0,0
169,-1.334086047,0.694859208,-0.856302164,-0.63,-0.03,9.34,0,0,0
170,-1.2260938,0.978475212,-0.83666721,-1.04,-0.11,9.19,0,0,0
171,-1.193368876,1.138827337,-0.714494163,-0.95,0.14,8.79,0,0,0
172,-0.998110166,0.722129978,-0.299978465,0.78,0.24,8.25,0,0,0
173,-0.621773546,0.378518282,-0.171260433,0.9,0.2,8.51,0,0,0
174,-0.325067573,-0.157079633,-0.227983634,0.64,-0.11,9.29,0,0,0
175,-0.354520004,-0.145080494,-0.133081355,-0.03,-0.22,8.8,0,0,0
176,-0.415606528,-0.22252948,-0.110173909,-0.3,-0.46,8.73,0,0,0
177,-0.332703389,-0.34906585,-0.062177355,-0.27,-0.51,8.78,0,0,0
178,0.007635815,-0.271616865,0.087266463,-1.09,-0.82,9.97,0,0,0
179,0.002181662,-0.050178216,0.148352986,-1.46,-0.79,9.86,0,0,0
180,-0.167987941,0.193077049,0.179987079,-1.32,-0.78,8.51,0,0,0
181,-0.266162711,0.220347818,0.131990525,-1.55,-1.04,8.81,0,0,0
182,-0.137444679,0.128718032,0.080721478,-1.77,-1.36,9.82,0,0,0
183,-0.13962634,0.038179077,-0.102538094,-1.4,-0.75,10.22,0,0,0
184,-0.375245789,0.147262156,-0.140717171,-1.45,-0.76,9.06,0,0,0
185,-0.527962099,0.212712003,-0.167987941,-1.43,-0.92,8.31,0,0,0
186,-0.287979327,0.001090831,-0.178896248,-1.16,-1.08,8.24,0,0,0
187,-0.08399397,-0.127627202,-0.119991386,-1.01,-1.07,8.43,0,0,0
188,0.09817477,-0.249800249,-0.064359016,-0.98,-1.01,8.68,0,0,0
189,0.149443817,-0.157079633,0.038179077,-1.23,-1.15,8.94,0,0,0
190,0.130899694,-0.146171325,0.057814031,-1.17,-1.19,9.08,0,0,0
191,0.08399397,-0.164715448,0.056723201,-1.08,-1.2,8.5,0,0,0
192,0.080721478,-0.018544123,0.033815754,-1.02,-1.08,8.51,0,0,0
193,0.081812309,0.127627202,0.011999139,-0.97,-1.08,8.52,0,0,0
194,0.078539816,0.220347818,-0.04145157,-1.06,-0.91,8.86,0,0,0
195,0.021816616,0.182168741,-0.080721478,-0.94,-0.85,8.8,0,0,0
196,0.020725785,0.101447263,-0.079630647,-0.8,-0.81,8.87,0,0,0
197,0.031634093,0.079630647,-0.037088247,-1.22,-0.98,8.69,0,0,0
198,0.035997416,0.033815754,-0.001090831,-1.55,-1.11,8.86,0,0,0
199,0.070904001,0.016362462,0.031634093,-1.46,-1,9.24,0,0,0
200,0.0283616,0.128718032,0.049087385,-1.48,-1.03,9.35,0,0,0
201,0.013089969,0.161442956,0.043633231,-1.39,-1.02,9.26,0,0,0
202,-0.042542401,0.224711141,0.034906585,-1.19,-0.9,9.3,0,0,0
203,-0.046905724,0.068722339,-0.033815754,-1.25,-1.01,9.08,0,0,0
204,-0.025089108,-0.050178216,-0.052359878,-1.29,-1.04,9.36,0,0,0
205,0.056723201,-0.099265601,-0.02727077,-1.37,-1.09,9.69,0,0,0
206,0.059995693,-0.105810586,-0.001090831,-1.56,-1.24,9.61,0,0,0
207,0.009817477,-0.015271631,0.002181662,-1.32,-1.19,9.35,0,0,0
208,-0.026179939,0.070904001,-0.05563237,-1.18,-1.25,9.08,0,0,0
209,0.006544985,0.047996554,-0.06981317,-0.9,-1.15,9.26,0,0,0
210,0.05563237,0.0283616,-0.051269047,-1.36,-1.38,9.99,0,0,0
211,0.135263017,-0.112355571,-0.045814893,-1.41,-1.32,10.2,0,0,0
212,0.039269908,-0.081812309,-0.081812309,-1.29,-1.31,9.46,0,0,0
213,-0.104719755,0.053450708,-0.149443817,-1.02,-1.23,8.94,0,0,0
214,-0.062177355,0.121082217,-0.109083078,-1.04,-1.13,9.51,0,0,0
215,0.02727077,0.021816616,-0.080721478,-1.2,-1.13,9.88,0,0,0
216,0.0141808,0.029452431,-0.0283616,-1.39,-1.13,9.7,0,0,0
217,-0.04145157,0.057814031,-0.031634093,-1.47,-1.18,9.42,0,0,0
218,-0.067631509,0.065449847,-0.035997416,-1.39,-1.18,9.4,0,0,0
219,-0.078539816,-0.010908308,-0.116718894,-1.66,-1.36,9.31,0,0,0
220,-0.066540678,-0.023998277,-0.158170463,-1.58,-1.29,9.16,0,0,0
221,-0.090538955,-0.005454154,-0.197440372,-1.56,-1.34,9.04,0,0,0
222,-0.068722339,0.043633231,-0.174532925,-1.18,-1.21,9.16,0,0,0
223,-0.020725785,-0.004363323,-0.149443817,-1.19,-1.27,9.41,0,0,0
224,0.023998277,-0.042542401,-0.115628063,-1.57,-1.38,9.44,0,0,0
225,-0.040360739,-0.037088247,-0.145080494,-1.53,-1.36,9.3,0,0,0
226,-0.054541539,0.049087385,-0.161442956,-1.43,-1.26,9.32,0,0,0
227,-0.087266463,0.018544123,-0.19525871,-1,-1.06,9.09,0,0,0
228,-0.068722339,-0.053450708,-0.196349541,-1.06,-1.13,9.03,0,0,0
229,-0.042542401,-0.140717171,-0.198531202,-1.03,-1.1,9.15,0,0,0
230,-0.016362462,-0.08399397,-0.191986218,-1.17,-1.07,8.99,0,0,0
231,-0.021816616,-0.034906585,-0.184350402,-1.25,-1.09,8.99,0,0,0
232,0.001090831,-0.002181662,-0.170169602,-1.25,-1.01,9.03,0,0,0
233,0.043633231,0.011999139,-0.150534648,-0.92,-0.89,9.74,0,0,0
234,0.094902278,-0.129808863,-0.165806279,-1.01,-0.9,9.86,0,0,0
235,0.044724062,-0.101447263,-0.173442094,-1.15,-1.03,9.85,0,0,0
236,-0.079630647,-0.002181662,-0.173442094,-1.16,-1.03,9.52,0,0,0
237,-0.130899694,0.054541539,-0.159261294,-1.22,-1.07,9.39,0,0,0
238,-0.09817477,0.042542401,-0.124354709,-0.95,-1.04,9.55,0,0,0
239,-0.089448124,0.021816616,-0.110173909,-0.9,-1.04,9.75,0,0,0
240,-0.078539816,0.005454154,-0.112355571,-0.97,-1.01,9.75,0,0,0
241,-0.136353848,0.006544985,-0.117809725,-1.35,-1.13,8.98,0,0,0
242,-0.211621172,0.134172186,-0.067631509,-1.49,-1.22,8.67,0,0,0
243,-0.187622895,0.143989663,-0.053450708,-1.42,-1.27,8.57,0,0,0
244,0.016362462,-0.008726646,-0.090538955,-1.21,-1.25,9.14,0,0,0
245,0.101447263,-0.061086524,-0.095993109,-1.17,-1.24,9.39,0,0,0
246,0.12544554,-0.051269047,-0.090538955,-1.05,-1.12,10,0,0,0
247,0.109083078,-0.071994832,-0.089448124,-1.07,-1.09,9.85,0,0,0
248,0.019634954,-0.068722339,-0.095993109,-1.08,-1.13,9.58,0,0,0
249,-0.045814893,-0.016362462,-0.127627202,-1.19,-1.16,8.96,0,0,0
250,-0.059995693,0.099265601,-0.102538094,-1.19,-1.18,9.04,0,0,0
251,0.007635815,0.118900555,-0.082903139,-1.23,-1.13,9.39,0,0,0
252,0.059995693,0.06981317,-0.066540678,-1.18,-1.07,9.5,0,0,0
253,0.071994832,-0.079630647,-0.050178216,-1.05,-1.02,9.54,0,0,0
254,0.077448986,-0.091629786,-0.051269047,-1.21,-1.24,9.52,0,0,0
255,0.070904001,-0.091629786,-0.065449847,-1.27,-1.29,9.73,0,0,0
256,0.046905724,-0.043633231,-0.099265601,-1.15,-1.21,9.85,0,0,0
257,-0.001090831,-0.056723201,-0.114537232,-1.23,-1.21,9.42,0,0,0
258,-0.105810586,0.003272492,-0.109083078,-1.27,-1.27,9.22,0,0,0
259,-0.09708394,0.032724923,-0.102538094,-1.28,-1.25,9.11,0,0,0
260,0.002181662,-0.019634954,-0.123263878,-1.06,-1.13,9.34,0,0,0
261,0.032724923,-0.040360739,-0.12544554,-1.14,-1.15,9.45,0,0,0
262,0.011999139,-0.061086524,-0.126536371,-1.31,-1.26,9.27,0,0,0
263,-0.020725785,-0.046905724,-0.128718032,-1.2,-1.2,9.4,0,0,0
264,0.001090831,0.018544123,-0.136353848,-1.23,-1.12,9.39,0,0,0
265,-0.011999139,0.052359878,-0.145080494,-1.06,-1,9.56,0,0,0
266,-0.026179939,0.067631509,-0.130899694,-0.97,-0.89,9.6,0,0,0
267,-0.082903139,0.037088247,-0.136353848,-1.07,-0.88,9.27,0,0,0
268,-0.09708394,0.02727077,-0.141808002,-1.05,-0.79,9.19,0,0,0
269,-0.075267324,0.034906585,-0.11126474,-1.04,-0.78,9.17,0,0,0
270,-0.022907446,0.033815754,-0.089448124,-1.13,-0.77,9.3,0,0,0
271,0.010908308,0.037088247,-0.050178216,-0.95,-0.59,9.75,0,0,0
272,0.059995693,-0.030543262,-0.023998277,-1.09,-0.56,9.78,0,0,0
273,-0.0141808,-0.005454154,-0.008726646,-1.13,-0.59,9.42,0,0,0
274,-0.06981317,0.0283616,0.022907446,-1.28,-0.56,8.93,0,0,0
275,-0.101447263,0.071994832,0.04145157,-1.33,-0.66,8.43,0,0,0
276,-0.056723201,0.089448124,0.049087385,-1.18,-0.69,8.7,0,0,0
277,0.16689711,-0.032724923,-0.026179939,-0.89,-0.49,9.37,0,0,0
278,0.114537232,0.001090831,-0.039269908,-1.04,-0.71,9.56,0,0,0
279,0.099265601,-0.087266463,-0.007635815,-1.2,-0.71,9.19,0,0,0
280,0.047996554,-0.138535509,-0.006544985,-1.15,-0.68,9.16,0,0,0
281,0.103628924,-0.238891941,-0.013089969,-1.19,-0.76,9.16,0,0,0
282,0.150534648,-0.274889357,0.010908308,-1.23,-0.87,9.45,0,0,0
283,0.142898833,-0.135263017,0.047996554,-1.59,-1.11,8.98,0,0,0
284,0.094902278,-0.032724923,0.074176493,-1.37,-1.06,9.11,0,0,0
285,0.128718032,0.121082217,0.047996554,-1.06,-0.92,9.28,0,0,0
286,0.114537232,0.088357293,0.018544123,-0.72,-0.93,9.93,0,0,0
287,0.147262156,-0.020725785,0.026179939,-0.81,-0.85,10.03,0,0,0
288,0.034906585,-0.134172186,0.030543262,-1.29,-1.13,9.21,0,0,0
289,0.010908308,-0.091629786,0.039269908,-1.23,-1.15,9.08,0,0,0
290,0.035997416,-0.085084801,0.043633231,-0.89,-1.03,9.45,0,0,0
291,0.038179077,0.112355571,0.058904862,-1.21,-1.19,9.41,0,0,0
292,0.038179077,0.112355571,0.058904862,-1.37,-1.22,9.31,0,0,0
293,0.016362462,0.179987079,0.04145157,-1.08,-1.13,9.3,0,0,0
294,0.078539816,-0.019634954,0.003272492,-1.08,-1.17,9.46,0,0,0
295,0.095993109,-0.093811447,-0.002181662,-1.09,-1.16,9.66,0,0,0
296,0.061086524,-0.127627202,-0.008726646,-0.86,-1.1,9.47,0,0,0
297,-0.049087385,0.119991386,0.006544985,-0.91,-1.09,9.1,0,0,0
298,-0.011999139,0.141808002,-0.003272492,-0.9,-1.05,9.05,0,0,0
299,0.049087385,0.129808863,0.023998277,-0.9,-1.03,9.56,0,0,0
300,0.049087385,0.022907446,0.042542401,-1.05,-1.11,9.7,0,0,0
301,0.001090831,0.101447263,0.057814031,-1.69,-1.33,9.52,0,0,0
302,-0.106901417,0.329430896,0.06981317,-1.65,-1.29,9.28,0,0,0
303,-0.116718894,0.488692191,0.077448986,-1.32,-1.18,9.29,0,0,0
304,-0.053450708,0.37633662,0.025089108,-1.06,-1.12,9.62,0,0,0
305,-0.063268185,0.423242344,0.050178216,-1.15,-1.09,9.67,0,0,0
306,-0.12544554,0.512690468,0.059995693,-1.39,-1.18,9.72,0,0,0
307,-0.235619449,0.706858347,0.062177355,-2.02,-1.51,10.61,0,0,0
308,-0.727584132,1.578432142,0.035997416,-2.27,-1.59,10.4,0,0,0
309,-0.859574657,1.853321499,0.022907446,-1.95,-1.55,10.08,0,0,0
310,-0.873755457,2.039853563,0.042542401,-1.69,-0.84,9.12,0,0,0
311,-0.817032256,1.954768762,0.165806279,-1.55,-1.06,8.46,0,0,0
312,-0.688314224,2.027854425,0.26507188,-1.69,-1.04,7.9,0,0,0
313,-0.512690468,1.697332698,0.407970713,-1.24,-0.9,7.8,0,0,0
314,-0.373064128,1.814051591,0.472329729,-1.7,-0.93,7.92,0,0,0
315,-0.41887902,2.108575903,0.187622895,-5.39,-2.41,8.78,0,0,0
316,-0.517053791,2.550362369,0.065449847,-5.97,-2.72,9.53,0,0,0
317,-0.556323699,2.304925443,-0.130899694,-5.88,-2.74,10.56,0,0,0
318,-0.884663765,1.934042977,-0.172351264,-3.68,-1.36,10.18,0,0,0
319,-1.091921613,1.900227223,-0.070904001,-3.11,-1.2,8.88,0,0,0
320,-1.03192592,2.022400271,0.123263878,-2.8,-1,7.78,0,0,0
321,-0.716675824,1.568614665,0.295615142,-3.8,-1.63,6.31,0,0,0
322,-0.346884189,1.190096384,0.354520004,-3.41,-1.47,6.24,0,0,0
323,-0.089448124,0.860665487,0.328340066,-4.85,-2.02,8.11,0,0,0
324,0.021816616,0.370882466,0.335975881,-5.47,-2.16,8.48,0,0,0
325,-0.044724062,0.207257849,0.333794219,-5.86,-2.51,8.61,0,0,0
326,-0.32070425,0.429787328,0.226892803,-5.63,-2.3,7.81,0,0,0
327,-0.317431758,0.478874714,0.200712864,-5.54,-2.38,7.18,0,0,0
328,-0.20943951,0.661043454,0.212712003,-5.87,-2.37,6.49,0,0,0
329,0.079630647,0.68286007,0.206167018,-5.44,-2.27,6.7,0,0,0
330,0.197440372,0.439604805,0.141808002,-5.66,-2.41,6.89,0,0,0
331,0.282525173,0.057814031,0.05563237,-5.43,-2.44,8.03,0,0,0
332,0.189804556,-0.135263017,-0.029452431,-6.33,-2.78,8.64,0,0,0
333,0.080721478,-0.32070425,-0.16689711,-5.52,-2.32,8.03,0,0,0
334,0.001090831,-0.260708557,-0.246527757,-4.87,-1.99,7.11,0,0,0
335,0.064359016,0.093811447,-0.16689711,-5.08,-2.08,7.21,0,0,0
336,0.145080494,-0.059995693,-0.157079633,-5.31,-2.24,7.68,0,0,0
337,0.245436926,-0.6272277,-0.183259571,-5.77,-2.31,8.33,0,0,0
338,0.275980188,-1.132282352,-0.256345234,-6.11,-2.6,8.33,0,0,0
339,0.367609974,-1.660244451,-0.328340066,-5.72,-2.37,9.39,0,0,0
340,0.16689711,-1.97985787,-0.442877298,-4.5,-1.97,9.03,0,0,0
341,0.075267324,-1.79768913,-0.445058959,-4.92,-2.26,8.42,0,0,0
342,0.051269047,-1.978767039,-0.521417114,-4.56,-2.23,7.93,0,0,0
343,0.283616003,-2.268928028,-0.493055514,-4.49,-2.28,7.75,0,0,0
344,0.397062405,-2.333287044,-0.436332313,-3.67,-2.13,7.98,0,0,0
345,0.517053791,-2.232930612,-0.351247512,-3.79,-2.07,8.71,0,0,0
346,0.497418837,-2.502365815,-0.373064128,-2.74,-1.86,9.23,0,0,0
347,0.499600498,-2.768528526,-0.386154097,-3.11,-1.88,8.63,0,0,0
348,0.380699943,-3.66628226,-0.503963822,-2.58,-1.96,8.81,0,0,0
349,0.392699082,-3.559380843,-0.451603944,-1.3,-1.64,9.5,0,0,0
350,0.27925268,-3.171045085,-0.440695636,-0.9,-1.54,9.72,0,0,0
351,-0.05563237,-2.390010244,-0.350156681,-0.76,-1.5,8.85,0,0,0
352,-0.017453293,-2.195842365,-0.304341788,0.24,-1.4,9.09,0,0,0
353,0.04145157,-1.9384063,-0.225801972,-0.57,-1.7,9.51,0,0,0
354,0.103628924,-1.93731547,-0.267253542,-0.39,-1.85,10.2,0,0,0
355,0.033815754,-1.699514359,-0.230165295,-0.28,-1.69,9.82,0,0,0
356,-0.186532064,-1.030835089,-0.162533787,-0.03,-1.8,9.08,0,0,0
357,-0.135263017,-0.691586716,-0.11126474,0.18,-1.79,8.96,0,0,0
358,-0.091629786,-0.462512252,-0.095993109,0.13,-1.92,9.15,0,0,0
359,-0.021816616,-0.047996554,0.030543262,0.14,-1.92,9.16,0,0,0
360,-0.031634093,0.059995693,0.034906585,0.03,-2.02,9.19,0,0,0
361,-0.025089108,0.057814031,0.022907446,-0.1,-2.05,9.4,0,0,0
362,-0.047996554,-0.05563237,0.011999139,0.13,-2.03,9.77,0,0,0
363,-0.105810586,0.032724923,0.052359878,-0.23,-1.92,9.5,0,0,0
364,-0.184350402,-0.006544985,0.026179939,-0.42,-1.96,8.9,0,0,0
365,-0.075267324,0.100356432,0.016362462,0,-1.84,8.51,0,0,0
366,-0.011999139,0.106901417,-0.006544985,0,-1.87,8.42,0,0,0
367,0.169078771,0.119991386,-0.038179077,-0.06,-2.03,9.53,0,0,0
368,0.123263878,0.118900555,-0.034906585,-0.32,-2.14,9.68,0,0,0
369,0.093811447,0.054541539,-0.035997416,-0.1,-1.83,9.41,0,0,0
370,-0.006544985,-0.194167879,-0.114537232,0.23,-1.83,9.29,0,0,0
371,-0.005454154,-0.206167018,-0.09708394,0.35,-1.73,9.14,0,0,0
372,-0.003272492,-0.179987079,-0.094902278,0.23,-1.76,8.96,0,0,0
373,0.076358155,-0.131990525,-0.103628924,-0.05,-1.83,9.01,0,0,0
374,0.075267324,-0.031634093,-0.063268185,0.26,-1.84,9.01,0,0,0
375,0.101447263,0.043633231,-0.018544123,0.42,-1.85,9.23,0,0,0
376,0.117809725,0.026179939,0.053450708,0.32,-1.92,9.67,0,0,0
377,0.086175632,-0.044724062,0.046905724,0.19,-1.98,9.68,0,0,0
378,-0.010908308,-0.087266463,-0.015271631,-0.11,-2.03,9.05,0,0,0
379,0.038179077,-0.118900555,-0.053450708,-0.04,-1.98,9.12,0,0,0
380,0.037088247,-0.093811447,-0.059995693,-0.14,-1.96,8.89,0,0,0
381,0.115628063,-0.001090831,-0.049087385,0.08,-2.04,9.18,0,0,0
382,0.143989663,-0.019634954,-0.039269908,0.39,-1.92,9.51,0,0,0
383,0.101447263,-0.018544123,-0.018544123,0.37,-1.88,9.55,0,0,0
384,0.076358155,-0.05563237,-0.034906585,-0.03,-2.09,9.38,0,0,0
385,0.05563237,0.004363323,-0.037088247,-0.04,-2.07,9.41,0,0,0
386,0.0141808,0.064359016,-0.044724062,0.1,-1.9,9.11,0,0,0
387,0.020725785,0.089448124,-0.054541539,0.17,-1.87,9.1,0,0,0
388,0.035997416,0.118900555,-0.031634093,0.01,-1.85,9.05,0,0,0
389,0.081812309,0.107992247,-0.035997416,0.23,-1.88,9.38,0,0,0
390,0.073085662,0.018544123,-0.050178216,0.23,-1.93,9.47,0,0,0
391,0.037088247,-0.005454154,-0.049087385,0.16,-2.04,8.95,0,0,0
392,0.029452431,0.107992247,-0.04145157,-0.02,-2.01,9.02,0,0,0
393,0.049087385,0.117809725,-0.06981317,-0.02,-2.1,9.11,0,0,0
394,0.063268185,0.179987079,-0.06981317,0.21,-1.88,9.21,0,0,0
395,0.019634954,0.188713725,-0.082903139,-0.2,-1.82,8.49,0,0,0
396,0.09708394,0.136353848,-0.090538955,0.02,-1.79,8.58,0,0,0
397,0.169078771,0.110173909,-0.094902278,0.05,-1.92,9.6,0,0,0
398,0.199622033,-0.005454154,-0.067631509,0.22,-1.93,9.77,0,0,0
399,0.146171325,0.001090831,-0.035997416,0.12,-1.88,9.8,0,0,0
400,-0.018544123,0.077448986,-0.021816616,-0.29,-1.93,8.96,0,0,0
401,0.052359878,0.047996554,-0.059995693,-0.14,-1.95,9.2,0,0,0
402,0.08399397,0.005454154,-0.080721478,-0.18,-1.89,9.77,0,0,0
403,-0.026179939,0.010908308,-0.092720617,-0.31,-1.98,9.75,0,0,0
404,-0.104719755,0.162533787,-0.056723201,-0.38,-2,9.55,0,0,0
405,-0.140717171,0.238891941,-0.057814031,-0.03,-1.92,9.58,0,0,0
406,-0.183259571,0.30652345,-0.029452431,-0.03,-1.81,9.45,0,0,0
407,-0.183259571,0.179987079,-0.067631509,-0.1,-1.84,9.25,0,0,0
408,-0.170169602,0.167987941,-0.073085662,-0.51,-2.04,8.92,0,0,0
409,-0.143989663,0.235619449,-0.109083078,-0.36,-2.06,8.9,0,0,0
410,-0.089448124,0.275980188,-0.104719755,0,-2.06,9.39,0,0,0
411,-0.092720617,0.229074464,-0.106901417,0.1,-1.97,9.47,0,0,0
412,-0.143989663,0.247618588,-0.102538094,-0.19,-1.91,9.12,0,0,0
413,-0.163624617,0.232346957,-0.109083078,0.06,-1.82,9.23,0,0,0
414,-0.103628924,0.215984495,-0.05563237,0.19,-1.75,9.35,0,0,0
415,-0.099265601,0.112355571,-0.05563237,0.12,-1.8,9.27,0,0,0
416,-0.093811447,0.081812309,-0.018544123,-0.14,-1.78,9.06,0,0,0
417,0.004363323,-0.114537232,-0.056723201,-0.67,-1.91,8.7,0,0,0
418,0.122173048,-0.22362031,-0.100356432,-0.37,-1.82,9.36,0,0,0
419,0.13962634,-0.249800249,-0.114537232,-0.41,-1.93,9.74,0,0,0
420,0.039269908,-0.123263878,-0.117809725,-0.61,-2.03,9.79,0,0,0
421,-0.031634093,-0.045814893,-0.12544554,-0.67,-1.96,9.55,0,0,0
422,-0.138535509,-0.0141808,-0.183259571,-0.55,-2.01,9.57,0,0,0
423,-0.140717171,-0.02727077,-0.194167879,-0.3,-1.81,9.61,0,0,0
424,-0.171260433,-0.042542401,-0.19525871,-0.24,-1.78,9.59,0,0,0
425,-0.246527757,-0.089448124,-0.197440372,-0.14,-1.71,9.36,0,0,0
426,-0.247618588,-0.162533787,-0.197440372,0.16,-1.69,9.58,0,0,0
427,-0.230165295,-0.142898833,-0.164715448,-0.04,-1.52,9.37,0,0,0
428,-0.29234265,-0.154897971,-0.11126474,-0.35,-1.37,8.99,0,0,0
429,-0.294524311,-0.308705111,-0.171260433,-0.32,-1.45,8.83,0,0,0
430,-0.232346957,-0.303250958,-0.160352125,0.42,-1.21,8.83,0,0,0
431,-0.255254403,-0.189804556,-0.118900555,0.27,-1.17,8.82,0,0,0
432,-0.199622033,-0.110173909,-0.046905724,0.29,-1.48,8.51,0,0,0
433,0.056723201,-0.09817477,-0.035997416,0.23,-1.41,9.15,0,0,0
434,0.150534648,-0.075267324,0.001090831,0.34,-1.48,9.39,0,0,0
435,0.107992247,-0.056723201,0.053450708,0,-1.55,9.5,0,0,0
436,0.062177355,-0.020725785,0.067631509,-0.42,-1.6,9.28,0,0,0
437,0.031634093,0,0.050178216,-0.44,-1.63,9.23,0,0,0
438,0.035997416,0.026179939,0.0141808,-0.01,-1.54,9.55,0,0,0
439,0.035997416,0.045814893,0.001090831,-0.11,-1.48,9.41,0,0,0
440,0.057814031,0.034906585,0.025089108,-0.06,-1.73,9.64,0,0,0
441,0.157079633,0.021816616,0.05563237,-0.08,-1.92,10.16,0,0,0
442,0.109083078,0.043633231,0.037088247,-0.35,-1.96,10.13,0,0,0
443,0.052359878,-0.033815754,-0.009817477,0.01,-1.99,10.03,0,0,0
444,0.049087385,-0.042542401,-0.001090831,0.09,-2.02,10.07,0,0,0
445,0.04145157,-0.022907446,0.020725785,0,-2.12,10.21,0,0,0
446,-0.009817477,-0.002181662,0.063268185,-0.17,-2.19,9.99,0,0,0
447,-0.023998277,0.0283616,0.081812309,-0.23,-2.19,9.84,0,0,0
448,-0.038179077,0.068722339,0.088357293,-0.11,-2.16,9.79,0,0,0
449,-0.026179939,0.104719755,0.09817477,0.2,-2.1,9.52,0,0,0
450,-0.020725785,0.131990525,0.119991386,0.31,-2.13,9.55,0,0,0
451,-0.005454154,0.146171325,0.135263017,0.39,-2.06,9.57,0,0,0
452,0.04145157,0.088357293,0.169078771,0.36,-1.95,9.56,0,0,0
453,0.042542401,0.114537232,0.231256126,0.25,-2.09,9.66,0,0,0
454,0.032724923,0.049087385,0.261799388,-0.47,-2.28,9.59,0,0,0
455,0.016362462,-0.018544123,0.214893664,-0.41,-2.24,9.5,0,0,0
456,0.019634954,-0.058904862,0.189804556,-0.12,-2.19,9.47,0,0,0
457,0.077448986,0.034906585,0.297796804,-0.02,-2.16,9.43,0,0,0
458,0.123263878,0.138535509,0.395971574,-0.36,-2.11,9.38,0,0,0
459,0.128718032,0.224711141,0.542142899,-0.11,-1.96,9.06,0,0,0
460,0.295615142,0.273798526,0.815941425,-0.11,-2.11,9.89,0,0,0
461,0.369791635,0.170169602,0.93375115,0.01,-2.02,10.23,0,0,0
462,0.318522588,0.017453293,0.97520272,-0.21,-2.05,9.74,0,0,0
463,0.197440372,0.093811447,1.119192383,-0.14,-2.14,9.76,0,0,0
464,0.298887634,0.230165295,1.132282352,-0.94,-2,10.21,0,0,0
465,0.337066712,0.747219086,1.51952728,0,-1.64,9.73,0,0,0
466,0.392699082,1.001382658,1.67224359,0.84,-1.44,9.82,0,0,0
467,0.423242344,1.419170848,1.932952147,0.7,-1.52,10.22,0,0,0
468,0.439604805,1.649336143,2.165299103,-1.89,-1.59,10.46,0,0,0
469,0.486510529,1.806415776,2.404191045,-2.04,-1.39,10.53,0,0,0
470,0.41887902,1.791144145,2.252565566,-4.1,-1.98,9.68,0,0,0
471,0.370882466,2.083486795,1.510800634,-2.93,-0.83,9.11,0,0,0
472,0.227983634,2.398736891,1.228275461,-3.53,-2.07,9.35,0,0,0
473,0.224711141,2.575451477,0.580321976,-3.31,-1.71,9.71,0,0,0
474,0.047996554,2.323469567,0.269435203,-2.66,-1.65,9.56,0,0,0
475,-0.002181662,2.316924582,0.146171325,-2.27,-1.63,9.98,0,0,0
476,-0.246527757,2.033308579,0.042542401,-1.75,-1.3,8.84,0,0,0
477,-0.154897971,2.129301687,0.146171325,-2.08,-1.28,9.1,0,0,0
478,-0.217075326,2.152209134,0.104719755,-3.6,-1.41,7.78,0,0,0
479,-0.020725785,1.679879405,-0.019634954,-3.22,-1.47,8.26,0,0,0
480,0.08399397,1.370083463,-0.150534648,-3.88,-1.38,8.3,0,0,0
481,0.062177355,0.959931089,-0.202894526,-3.26,-1.45,8.7,0,0,0
482,0.140717171,0.737401609,-0.052359878,-3.91,-1.35,9.98,0,0,0
483,-0.039269908,0.556323699,-0.016362462,-3.18,-1.17,9.98,0,0,0
484,-0.290160988,1.300270293,0.249800249,-4.56,-1.33,8.89,0,0,0
485,-0.369791635,1.496619834,0.263981049,-4.72,-1.34,8.26,0,0,0
486,-0.234528618,1.730057621,0.305432619,-5.51,-1.29,8.88,0,0,0
487,-0.231256126,1.918771346,0.086175632,-7.11,-1.59,8.77,0,0,0
488,-0.257436065,1.606793743,-0.070904001,-8.05,-1.9,7.99,0,0,0
489,-0.297796804,0.650135146,-0.36215582,-5.6,-1.22,7.03,0,0,0
490,-0.131990525,-0.063268185,-0.340339204,-4.43,-1.4,8.24,0,0,0
491,-0.130899694,0.044724062,-0.270526034,-5.67,-1.45,7.91,0,0,0
492,-0.076358155,-0.059995693,-0.160352125,-5.34,-1.58,7.97,0,0,0
493,0.075267324,-0.015271631,-0.025089108,-5.84,-1.68,8.25,0,0,0
494,0.020725785,-0.101447263,-0.095993109,-5.81,-1.95,8.52,0,0,0
495,0.002181662,-0.257436065,-0.271616865,-5.64,-1.73,8.91,0,0,0
496,-0.075267324,-0.219256987,-0.281434342,-4.47,-1.55,9.13,0,0,0
497,-0.126536371,0.046905724,-0.245436926,-4.96,-1.69,8.59,0,0,0
498,-0.245436926,-0.23671028,-0.405789051,-4.76,-1.63,7.31,0,0,0
499,-0.133081355,-0.52905293,-0.439604805,-4.45,-1.74,8.08,0,0,0
500,-0.031634093,-0.625046038,-0.481056375,-5.2,-1.8,8.35,0,0,0
501,0.009817477,-0.746128255,-0.542142899,-5.84,-1.9,8.95,0,0,0
502,0.034906585,-0.556323699,-0.379609112,-5.61,-1.65,8.92,0,0,0
503,-0.050178216,-0.167987941,-0.160352125,-5.23,-1.82,8.59,0,0,0
504,-0.089448124,0.489783021,-0.165806279,-5.94,-2.23,8.14,0,0,0
505,-0.02727077,0.47451139,-0.26507188,-5.26,-1.95,8.45,0,0,0
506,-0.035997416,0.421060682,-0.375245789,-4.99,-1.88,8.7,0,0,0
507,-0.079630647,0.343611696,-0.379609112,-4.39,-1.96,8.81,0,0,0
508,-0.09817477,0.363246651,-0.382881605,-4.93,-1.99,8.43,0,0,0
509,-0.127627202,0.289070157,-0.361064989,-4.53,-1.84,8.58,0,0,0
510,-0.115628063,0.391608251,-0.27925268,-4.79,-1.9,8.41,0,0,0
511,-0.15271631,0.512690468,-0.196349541,-5.08,-1.77,7.98,0,0,0
512,-0.003272492,0.524689606,0.020725785,-5.87,-2.29,7.72,0,0,0
513,0.130899694,0.12544554,-0.043633231,-5.35,-2.2,8.42,0,0,0
514,0.179987079,-0.251981911,-0.106901417,-5.01,-2.04,9.17,0,0,0
515,-0.026179939,-0.364337481,-0.093811447,-5.13,-2.1,8.54,0,0,0
516,-0.082903139,-0.355610835,-0.101447263,-5.2,-2.08,8.29,0,0,0
517,-0.033815754,-0.298887634,-0.145080494,-5.52,-2.19,8.28,0,0,0
518,-0.002181662,-0.385063266,-0.215984495,-5.73,-2.34,8.42,0,0,0
519,0.018544123,-0.621773546,-0.338157543,-5.33,-2.32,8.84,0,0,0
520,0.001090831,-1.084285798,-0.542142899,-5.26,-2.37,9.04,0,0,0
521,-0.089448124,-1.305724447,-0.678496747,-5.19,-2.36,8.71,0,0,0
522,-0.182168741,-1.683151897,-0.885754595,-5.17,-2.41,8.25,0,0,0
523,-0.214893664,-3.313943917,-1.440987464,-3.01,-1.38,7.53,0,0,0
524,-0.258526895,-3.91717334,-1.396263402,-1.87,-1.31,7.76,0,0,0
525,-0.258526895,-3.749185399,-1.074468321,-3.26,-2.31,8.8,0,0,0
526,0.099265601,-2.921244836,-0.457058098,-3.17,-2.57,9.4,0,0,0
527,0.08399397,-2.949606436,-0.40469822,-2.56,-2.3,10.06,0,0,0
528,-1.007927643,-3.279037332,-0.572686161,-1.06,-2.45,9.16,0,0,0
529,-1.022108443,-3.292127302,-0.639226839,-1.17,-2.4,8.8,0,0,0
530,-0.929387827,-3.032509575,-0.610865238,-0.76,-3.4,8.11,0,0,0
531,-0.433059821,-2.422735168,-0.709040009,-1.73,-2.87,8.22,0,0,0
532,0.089448124,-1.984221193,-0.6555893,-1.95,-2.63,8.08,0,0,0
533,0.295615142,-2.046398548,-0.686132562,-1.21,-3.01,8.48,0,0,0
534,0.583594469,-1.899136392,-0.721039147,0.23,-3.1,10.8,0,0,0
535,0.355610835,-1.851139838,-0.747219086,-0.04,-2.51,10.55,0,0,0
536,-0.175623756,-1.942769624,-0.787579825,0.35,-3.18,9.85,0,0,0
537,-0.402516559,-1.810779099,-0.811578102,0.24,-2.61,9.51,0,0,0
538,-0.577049484,-1.883864761,-0.826849733,1.09,-3.01,9.12,0,0,0
539,-0.054541539,-1.159553122,-0.5988661,1.12,-2.27,8.69,0,0,0
540,0.0141808,-1.130100691,-0.657770962,1.38,-2.87,8.74,0,0,0
541,0.104719755,-1.007927643,-0.683950901,0.72,-2.94,9.45,0,0,0
542,0.562868684,-1.090830782,-0.661043454,1.66,-3.14,9.76,0,0,0
543,0.602138592,-0.904298719,-0.469057236,2.04,-3.06,10.25,0,0,0
544,0.632681854,-0.765763209,-0.40360739,2.3,-3.12,10.77,0,0,0
545,0.241073603,-0.369791635,-0.187622895,1.49,-3.03,9.9,0,0,0
546,0.110173909,-0.189804556,-0.162533787,0.6,-2.7,9.36,0,0,0
547,0.064359016,-0.238891941,-0.200712864,1.61,-2.46,8.78,0,0,0
548,0.077448986,-0.113446401,-0.307614281,1.75,-2.87,9.29,0,0,0
549,0.167987941,-0.059995693,-0.29343348,2.34,-2.72,9.7,0,0,0
550,0.273798526,0.078539816,-0.088357293,2.43,-2.56,9.84,0,0,0
551,0.164715448,-0.006544985,-0.058904862,2.04,-2.48,9.61,0,0,0
552,0.063268185,-0.145080494,-0.093811447,1.98,-2.72,9.93,0,0,0
553,0.025089108,-0.134172186,0.037088247,1.71,-2.79,9.88,0,0,0
554,-0.046905724,0.010908308,0.15380714,1.44,-2.81,9.79,0,0,0
555,-0.109083078,0.137444679,0.229074464,1.47,-2.56,9.22,0,0,0
556,-0.186532064,0.307614281,0.22252948,1.89,-2.42,8.97,0,0,0
557,-0.190895387,0.401425728,0.234528618,1.75,-2.35,8.63,0,0,0
558,-0.105810586,0.311977604,0.147262156,1.88,-2.42,8.89,0,0,0
559,0.026179939,0.02727077,-0.008726646,1.69,-2.55,9.23,0,0,0
560,0.013089969,-0.112355571,-0.046905724,1.52,-2.58,9.28,0,0,0
561,-0.0141808,-0.148352986,-0.023998277,1.61,-2.79,9.54,0,0,0
562,-0.020725785,-0.126536371,-0.005454154,1.49,-2.67,9.4,0,0,0
563,-0.093811447,-0.042542401,0.057814031,1.49,-2.47,8.57,0,0,0
564,-0.100356432,0.198531202,0.130899694,1.66,-2.34,8.52,0,0,0
565,0.022907446,0.247618588,0.093811447,1.74,-2.51,9.07,0,0,0
566,0.138535509,0.175623756,0.025089108,2.01,-2.6,9.52,0,0,0
567,0.105810586,0.116718894,0.049087385,1.62,-2.5,9.7,0,0,0
568,-0.015271631,0.049087385,0.035997416,1.62,-2.51,9.24,0,0,0
569,-0.035997416,0.106901417,0.103628924,1.48,-2.48,9.18,0,0,0
570,0.008726646,0.273798526,0.184350402,1.26,-2.48,9.19,0,0,0
571,0.037088247,0.316340927,0.176714587,1.23,-2.51,9.11,0,0,0
572,0.052359878,0.267253542,0.11126474,1.35,-2.75,9.38,0,0,0
573,0.112355571,0.257436065,0.161442956,1.91,-2.43,9.69,0,0,0
574,0.075267324,0.237801111,0.211621172,1.83,-2.43,9.47,0,0,0
575,0.020725785,0.351247512,0.357792497,1.33,-2.53,9.37,0,0,0
576,0.0141808,0.393789912,0.388335759,1.24,-2.54,9.3,0,0,0
577,0.045814893,0.424333174,0.415606528,0.93,-2.5,9.27,0,0,0
578,0.081812309,0.318522588,0.442877298,0.87,-2.04,9.14,0,0,0
579,0.095993109,0.395971574,0.726493301,0.91,-2.29,8.95,0,0,0
580,0.197440372,0.567232007,1.14319066,1.03,-2.38,8.9,0,0,0
581,0.464693913,0.51596296,1.217367153,1.33,-2.42,10.22,0,0,0
582,0.481056375,0.435241482,1.163916445,0.98,-2.33,10.09,0,0,0
583,0.227983634,0.234528618,1.050470044,0.95,-2.08,9.77,0,0,0
584,0.263981049,0.355610835,1.233729615,0.53,-2.65,9.9,0,0,0
585,0.241073603,0.329430896,1.258818723,1.15,-2.53,10.43,0,0,0
586,0.05563237,-0.059995693,0.950113612,0.85,-2.64,9.72,0,0,0
587,-0.075267324,-0.045814893,0.846484687,0.86,-2.53,9.42,0,0,0
588,-0.058904862,0.233437787,0.897753734,1.01,-2.31,9.03,0,0,0
589,0.219256987,0.866119641,1.205368015,0.24,-1.95,8.61,0,0,0
590,0.551960376,1.089739952,1.556615527,-0.13,-2.11,8.53,0,0,0
591,0.783216502,1.083194967,1.631882851,-0.99,-2.28,8.76,0,0,0
592,0.769035702,0.25089108,1.244637923,0.51,-2.12,10.08,0,0,0
593,0.68286007,0.107992247,1.194459707,1.17,-1.75,9.99,0,0,0
594,0.491964683,0.563959515,1.583886296,0.1,-2.26,9.78,0,0,0
595,0.440695636,0.730856624,1.764964206,-0.7,-2.15,9.68,0,0,0
596,0.449422282,0.513781299,1.678788574,-0.98,-1.6,9.27,0,0,0
597,0.546506222,-0.002181662,1.371174294,-1.28,-1.71,9.6,0,0,0
598,0.621773546,-0.053450708,1.391900078,-1.54,-2.16,10,0,0,0
599,0.713403332,-0.003272492,1.409353371,-1.54,-2.41,10.39,0,0,0
600,0.665406777,0.358883327,1.300270293,-1.76,-1.92,9.94,0,0,0
601,0.548687884,0.538870407,1.341721862,-1.93,-1.7,9.77,0,0,0
602,0.489783021,0.447240621,1.371174294,-0.87,-1.82,9.91,0,0,0
603,0.488692191,0.500691329,1.466076572,-0.74,-1.44,9.73,0,0,0
604,0.331612558,0.517053791,1.410444202,-0.65,-1.8,9.42,0,0,0
605,0.260708557,0.377427451,1.2260938,-0.12,-1.46,8.29,0,0,0
606,0.289070157,0.350156681,1.085376629,-0.09,-1.86,8.49,0,0,0
607,0.488692191,0.245436926,0.839939703,-1.05,-1.49,10.48,0,0,0
608,0.575958653,0.373064128,0.901026226,-1.1,-0.99,9.97,0,0,0
609,0.363246651,0.30652345,0.939205304,-0.23,0.01,8.82,0,0,0
610,0.327249235,0.506145483,1.377719278,-1.21,-0.78,8.86,0,0,0
611,0.884663765,0.286888496,2.235112273,-1.84,-1.13,10.51,0,0,0
612,0.899935396,-0.221438649,2.127120026,-1.47,-0.7,11,0,0,0
613,0.922842842,-0.397062405,2.14675498,-1.51,-0.83,10.72,0,0,0
614,0.677405916,0.294524311,2.084577625,-2.21,-0.76,9.95,0,0,0
615,0.532325422,0.702495024,1.745329252,-1.72,-0.45,9.2,0,0,0
616,0.620682715,1.183551399,1.051560874,-0.18,0.03,9.08,0,0,0
617,0.385063266,1.110465737,1.153008137,-0.37,-0.51,9.34,0,0,0
618,0.478874714,0.741764932,1.22718463,-0.98,0.41,10.83,0,0,0
619,0.654498469,0.535597914,1.900227223,-2.06,-0.19,10.64,0,0,0
620,0.806123948,0.603229423,2.123847534,-4.02,-0.14,10.12,0,0,0
621,0.772308194,0.400334897,2.012582794,-4.21,-0.15,9.67,0,0,0
622,0.294524311,-0.272707696,1.430079156,-3.08,-0.2,9.36,0,0,0
623,0.035997416,-0.174532925,1.030835089,-0.9,-0.28,8.15,0,0,0
624,-0.261799388,0.161442956,0.76685404,0.57,0.06,7.88,0,0,0
625,-0.049087385,0.05563237,0.820304748,0.36,0,8.63,0,0,0
626,0.123263878,-0.355610835,0.992656012,-2.59,0.26,10.93,0,0,0
627,0.235619449,-0.688314224,1.099557429,-3.44,1.28,11.72,0,0,0
628,0.013089969,-0.330521727,1.180278907,-3.82,0.7,9.27,0,0,0
629,-0.215984495,0.286888496,1.414807525,-1.36,0.25,8.38,0,0,0
630,-0.154897971,0.526871268,1.341721862,-0.51,-0.05,8.21,0,0,0
631,0.021816616,0.33488505,1.264272877,-0.11,-0.1,8.91,0,0,0
632,0.202894526,0.031634093,1.118101552,-0.38,0.17,9.56,0,0,0
633,0.095993109,-0.518144622,0.692677547,-0.39,-0.35,9.81,0,0,0
634,0.203985356,-0.494146344,0.511599637,-0.13,1.14,10.4,0,0,0
635,0.249800249,-0.43196899,0.429787328,-1.36,0.41,9.15,0,0,0
636,-0.183259571,-0.837758041,0.990474351,-1.93,1.08,10.09,0,0,0
637,0.029452431,-0.541052068,1.065741674,-1.99,0.7,9.97,0,0,0
638,0.12544554,0.517053791,0.949022781,0.13,0.75,10.05,0,0,0
639,0,0.734129117,0.873755457,0.2,0.37,8.22,0,0,0
640,0.004363323,0.547597053,1.039561736,-2.12,0.49,9.84,0,0,0
641,0.258526895,-0.815941425,1.11482906,-3.87,0.77,11.32,0,0,0
642,0.238891941,-0.843212195,0.927206165,-3.17,1.12,10.71,0,0,0
643,0.039269908,-0.40360739,0.582503638,-2.72,0.65,9.58,0,0,0
644,-0.202894526,0.617410223,0.217075326,-0.06,0.99,8.78,0,0,0
645,-0.104719755,0.498509668,0.185441233,-0.44,1.75,8.37,0,0,0
646,0.063268185,0.469057236,0.632681854,-3.11,0.74,10.51,0,0,0
647,1.146463152,0.330521727,1.997311163,-1.98,0,10.33,0,0,0
648,1.550070542,0.467966406,1.832595715,-2.49,0.8,10.87,0,0,0
649,2.112939226,0.931569488,1.131191521,-0.54,1.1,10.66,0,0,0
650,1.312269431,0.710130839,0.898844565,-0.65,0.53,10.23,0,0,0
651,0.517053791,0.438513975,0.632681854,-1.44,0.67,10.22,0,0,0
652,-0.448331452,-0.249800249,-0.493055514,-1.47,-0.62,8.52,0,0,0
653,-0.371973297,-0.239982772,-1.228275461,-1.48,0.03,9.56,0,0,0
654,0.080721478,-0.301069296,-1.896954731,-0.79,0.96,10,0,0,0
655,-0.509417975,-0.220347818,-1.658062789,-1.9,2.3,8.44,0,0,0
656,-0.259617726,0.080721478,-0.411243205,-2.19,1.69,8.98,0,0,0
657,0.025089108,0.476693052,0.15271631,-1.72,1.22,10.54,0,0,0
658,0.344702527,0.85084801,0.511599637,-1.31,1.39,10.72,0,0,0
659,0.332703389,0.676315085,0.430878159,-0.23,1.56,10,0,0,0
660,-0.019634954,0.260708557,0.135263017,-1.13,1.15,9.87,0,0,0
661,-0.190895387,0.053450708,0.087266463,-1.41,1.2,9.67,0,0,0
662,-0.224711141,-0.237801111,-0.025089108,-2.43,1.75,8.33,0,0,0
663,-0.254163572,-0.174532925,-0.211621172,-2.6,1.48,8.55,0,0,0
664,-0.022907446,-0.042542401,-0.079630647,-2.26,1.3,8.83,0,0,0
665,0.11126474,0.050178216,-0.062177355,-1.92,1.21,9.42,0,0,0
666,0.058904862,-0.035997416,-0.118900555,-1.55,1.43,10.13,0,0,0
667,-0.158170463,-0.128718032,-0.080721478,-1.94,1.4,9.8,0,0,0
668,-0.201803695,-0.208348679,-0.017453293,-1.59,1.05,9.05,0,0,0
669,-0.325067573,-0.16689711,-0.176714587,-1.42,0.94,8.71,0,0,0
670,-0.188713725,-0.088357293,-0.26507188,-2.07,0.79,8.96,0,0,0
671,-0.016362462,-0.013089969,-0.267253542,-2.26,1.25,9.91,0,0,0
672,-0.089448124,0.173442094,-0.289070157,-2.03,1.33,10,0,0,0
673,-0.089448124,0.173442094,-0.289070157,-1.35,1.21,9.54,0,0,0
674,-0.170169602,0.101447263,-0.328340066,-1.68,0.91,9.13,0,0,0
675,-0.171260433,-0.307614281,-0.357792497,-1.92,0.9,9.14,0,0,0
676,-0.115628063,-0.37633662,-0.381790774,-2,1.26,9.31,0,0,0
677,-0.0283616,-0.124354709,-0.295615142,-2.05,1.13,9.17,0,0,0
678,0.017453293,-0.127627202,-0.283616003,-2.04,1.12,9.24,0,0,0
679,0.074176493,-0.056723201,-0.351247512,-1.81,1.21,9.98,0,0,0
680,-0.039269908,-0.18107791,-0.449422282,-1.81,1.04,9.52,0,0,0
681,0.005454154,-0.237801111,-0.476693052,-2.13,1.48,9.5,0,0,0
682,-0.257436065,-0.211621172,-0.527962099,-2.22,1.25,9.49,0,0,0
683,-0.188713725,-0.087266463,-0.649044316,-1.57,0.9,9.65,0,0,0
684,-0.210530341,-0.113446401,-0.786488994,-1.46,0.49,9.21,0,0,0
685,-0.143989663,-0.329430896,-1.11591989,-1.88,0.51,9.48,0,0,0
686,-0.02727077,-0.322885912,-1.215185492,-2.87,1.24,10.47,0,0,0
687,-0.117809725,-0.273798526,-1.262091215,-2.84,0.8,10.49,0,0,0
688,-0.414515697,0.283616003,-1.56097885,-2.28,1.07,9.26,0,0,0
689,-0.406879882,0.680678408,-1.695151036,-2.3,0.16,8.17,0,0,0
690,-0.398153236,0.715584993,-1.928588823,-0.38,0.31,8,0,0,0
691,-0.033815754,0.207257849,-2.103121749,-0.45,0.29,8.36,0,0,0
692,0.065449847,-0.341430035,-2.165299103,-2.11,0.04,10.56,0,0,0
693,-0.106901417,-0.838848872,-2.677989571,-2.46,0.1,11.53,0,0,0
694,-0.44614979,-0.649044316,-2.921244836,-1.98,1.55,10.49,0,0,0
695,-0.693768378,-0.263981049,-2.695442864,-2.06,0.52,8.84,0,0,0
696,-0.640317669,-0.201803695,-2.347467844,-2,-0.04,8.76,0,0,0
697,-0.495237175,-0.131990525,-2.325651228,-2.4,-0.5,9.49,0,0,0
698,-0.400334897,0.066540678,-2.386737752,-2.43,-0.33,10.09,0,0,0
699,-0.606501915,0.233437787,-2.720531972,-2.36,-0.94,9.83,0,0,0
700,-0.66867927,0.025089108,-2.987785513,-2.25,-0.91,9.85,0,0,0
701,-0.909752873,-0.19525871,-3.253948224,-0.81,-0.55,9.94,0,0,0
702,-1.11591989,0.031634093,-3.265947363,-1.31,-0.88,9.14,0,0,0
703,-1.113738229,0.247618588,-3.184135054,-2.49,-0.84,9.36,0,0,0
704,-1.07337749,0.065449847,-3.032509575,-3.22,-0.68,9.19,0,0,0
705,-0.949022781,0.107992247,-2.62126637,-3.41,-0.85,8.69,0,0,0
706,-0.375245789,0.386154097,-2.307107105,-2.5,-1.07,10.24,0,0,0
707,-0.50178216,0.842121364,-2.229658119,-1.36,-1.01,9.01,0,0,0
708,-0.457058098,0.988292689,-2.408554368,-0.51,-0.89,9.03,0,0,0
709,-0.508327145,1.192278045,-2.506729138,-1.25,-1.31,9.32,0,0,0
710,-0.402516559,0.91957035,-2.549271539,-2.27,-1.45,9.47,0,0,0
711,-0.267253542,0.469057236,-2.470731722,-3.54,-2.19,9.25,0,0,0
712,0.021816616,-0.412334036,-2.605994739,-3.51,-1.9,8.91,0,0,0
713,0.116718894,-0.555232868,-2.851431665,-3.39,-2.37,8.96,0,0,0
714,0.277071019,-0.374154958,-3.073961145,-2.8,-2.06,10.71,0,0,0
715,0.092720617,0.001090831,-2.841614188,-0.36,-1.27,12.76,0,0,0
716,-0.287979327,0.394880743,-2.632174678,0,-1.3,12.28,0,0,0
717,-0.629409362,0.185441233,-2.218749812,-0.85,-1.71,10.4,0,0,0
718,-0.490873852,-0.150534648,-2.025672763,-0.53,-2.03,9.73,0,0,0
719,-0.357792497,-0.355610835,-1.86859313,-0.94,-2.18,9.69,0,0,0
720,-0.165806279,-0.586866961,-1.875138115,-1.19,-2.7,9.91,0,0,0
721,-0.157079633,-0.666497608,-1.964586239,-0.93,-2.66,10.38,0,0,0
722,-0.233437787,-0.626136869,-2.044216886,-0.79,-2.61,10.67,0,0,0
723,-0.693768378,0.033815754,-2.055125194,-0.51,-2.74,9.27,0,0,0
724,-0.683950901,0.259617726,-2.026763594,-0.95,-2.5,9.05,0,0,0
725,-0.359974158,0.117809725,-1.683151897,-1.42,-2.88,8.36,0,0,0
726,-0.092720617,-0.164715448,-1.676606913,-1.19,-2.51,8.55,0,0,0
727,0.079630647,-0.30652345,-1.794416637,-0.7,-3.05,8.99,0,0,0
728,0.161442956,0.079630647,-1.612247897,-0.11,-2.76,9.74,0,0,0
729,0.133081355,0.010908308,-1.496619834,0,-2.83,9.63,0,0,0
730,0.058904862,-0.09708394,-1.430079156,-0.61,-2.73,9.35,0,0,0
731,-0.031634093,-0.193077049,-1.398445063,-1.92,-3.66,9.39,0,0,0
732,-0.071994832,0.025089108,-1.433351648,-2.31,-3.94,9.89,0,0,0
733,-0.110173909,0.357792497,-1.426806664,-0.33,-3.16,10.24,0,0,0
734,-0.485419698,0.611956069,-1.359175155,0.6,-2.48,9.63,0,0,0
735,-0.607592746,0.535597914,-1.158462291,0.69,-1.92,8.77,0,0,0
736,-0.437423144,-0.04145157,-0.715584993,-1.11,-2.23,8.12,0,0,0
737,-0.644680992,-0.352338343,-0.568322838,-0.23,-3.1,8.73,0,0,0
738,-0.537779576,-0.436332313,-0.631591023,-0.04,-3.59,8.03,0,0,0
739,0.305432619,0.174532925,-0.631591023,-0.62,-3.42,8.41,0,0,0
740,0.308705111,0.186532064,-0.620682715,-0.85,-3.17,8.51,0,0,0
741,0.416697359,0.178896248,-0.546506222,-0.63,-3.47,8.56,0,0,0
742,0.472329729,0.214893664,-0.301069296,-1.03,-3.91,10.09,0,0,0
743,0.47342056,0.172351264,-0.049087385,-0.9,-3.84,10.79,0,0,0
744,0.245436926,0.173442094,0.127627202,-1.28,-3.74,9.44,0,0,0
745,-0.151625479,0.350156681,0.076358155,-0.94,-2.89,8.7,0,0,0
746,-0.056723201,0.30652345,-0.199622033,-1.03,-3.12,8.03,0,0,0
747,0.247618588,0.327249235,-0.484328867,-0.93,-3.64,9.38,0,0,0
748,0.219256987,0.322885912,-0.447240621,-0.37,-3.16,9.8,0,0,0
749,0.117809725,0.229074464,-0.332703389,-0.17,-3.01,9.82,0,0,0
750,0.178896248,-0.165806279,-0.190895387,-0.61,-3.28,10.31,0,0,0
751,0.058904862,-0.135263017,-0.044724062,-1.3,-3.61,10.41,0,0,0
752,-0.115628063,0.001090831,0.078539816,-1.36,-3.6,9.82,0,0,0
753,-0.343611696,0.229074464,0.283616003,-0.48,-3.03,8.72,0,0,0
754,-0.260708557,0.217075326,0.256345234,0,-2.56,8.16,0,0,0
755,0.133081355,0.044724062,0.160352125,-0.42,-3,8.64,0,0,0
756,0.26507188,0.010908308,0.158170463,-0.69,-3.1,9.16,0,0,0
757,0.260708557,-0.010908308,0.126536371,-0.97,-3.22,9.31,0,0,0
758,0.220347818,0.023998277,0.147262156,-1.34,-3.58,9.97,0,0,0
759,0.104719755,0.201803695,0.214893664,-1.85,-3.82,9.93,0,0,0
760,-0.04145157,0.379609112,0.29234265,-1.63,-3.45,9.14,0,0,0
761,0.034906585,0.313068435,0.30652345,-0.11,-2.89,9.07,0,0,0
762,0.052359878,0.203985356,0.303250958,0.06,-2.87,9.16,0,0,0
763,0.143989663,0.065449847,0.319613419,-0.32,-2.84,9.81,0,0,0
764,0.122173048,-0.122173048,0.289070157,-1.06,-3.18,10.16,0,0,0
765,0.056723201,-0.239982772,0.149443817,-1.45,-3.29,9.93,0,0,0
766,-0.042542401,-0.210530341,0.052359878,-1.37,-3.21,9.1,0,0,0
767,-0.106901417,-0.094902278,0.043633231,-1.37,-3.21,9.1,0,0,0
768,0.005454154,0.070904001,0.158170463,-0.69,-2.84,9.27,0,0,0
769,0.086175632,-0.026179939,0.208348679,-0.77,-2.86,9.38,0,0,0
770,0.123263878,-0.105810586,0.234528618,-0.27,-2.71,9.6,0,0,0
771,0.167987941,-0.227983634,0.242164434,-0.43,-2.62,9.95,0,0,0
772,0.018544123,-0.241073603,0.176714587,-1.49,-3.07,9.82,0,0,0
773,-0.033815754,-0.115628063,0.103628924,-0.93,-2.69,9.53,0,0,0
774,-0.063268185,-0.008726646,0.007635815,-0.72,-2.46,9.08,0,0,0
775,0.046905724,0.0283616,-0.057814031,-0.76,-2.86,8.9,0,0,0
776,0.162533787,-0.022907446,-0.019634954,-1.02,-2.94,9.67,0,0,0
777,0.063268185,-0.0141808,0.059995693,-1.25,-3.04,9.76,0,0,0
778,0.034906585,-0.007635815,0.100356432,-1.06,-2.96,9.62,0,0,0
779,0.044724062,0.007635815,0.149443817,-1.4,-3.02,9.68,0,0,0
780,0.020725785,0.039269908,0.150534648,-1.42,-2.94,9.57,0,0,0
781,0.020725785,0.013089969,0.131990525,-1.13,-2.79,9.83,0,0,0
782,-0.0141808,0.019634954,0.133081355,-1.16,-2.75,9.72,0,0,0
783,-0.023998277,-0.044724062,0.182168741,-0.69,-2.49,9.53,0,0,0
784,-0.013089969,-0.016362462,0.20943951,-0.89,-2.5,9.46,0,0,0
785,-0.0283616,-0.057814031,0.189804556,-1.21,-2.67,9.36,0,0,0
786,0.047996554,-0.19525871,0.061086524,-0.95,-2.64,9.77,0,0,0
787,0.046905724,-0.196349541,0.081812309,-0.99,-2.65,9.89,0,0,0
788,-0.052359878,-0.126536371,0.113446401,-1.03,-2.78,9.72,0,0,0
789,-0.075267324,-0.058904862,0.115628063,-0.87,-2.67,9.51,0,0,0
790,-0.088357293,-0.043633231,0.129808863,-0.85,-2.63,9.25,0,0,0
791,-0.017453293,-0.05563237,0.190895387,-0.89,-2.65,9.47,0,0,0
792,-0.011999139,-0.019634954,0.231256126,-0.96,-2.69,9.51,0,0,0
793,-0.031634093,0.031634093,0.262890219,-1.06,-2.74,9.37,0,0,0
794,0,0.010908308,0.287979327,-0.94,-2.72,9.08,0,0,0
795,0.031634093,-0.030543262,0.271616865,-1.12,-2.7,9.06,0,0,0
796,0.075267324,-0.154897971,0.163624617,-1.06,-2.81,9.59,0,0,0
797,0.110173909,-0.118900555,0.158170463,-1.15,-2.84,9.55,0,0,0
798,0.065449847,-0.124354709,0.167987941,-1.05,-2.84,9.39,0,0,0
799,0.062177355,-0.066540678,0.217075326,-0.98,-2.69,9.09,0,0,0
800,0.066540678,-0.058904862,0.22362031,-0.93,-2.75,9.06,0,0,0
801,0.13962634,-0.065449847,0.202894526,-1.08,-2.65,9.55,0,0,0
802,0.16689711,-0.016362462,0.231256126,-1.02,-2.63,9.99,0,0,0
803,0.112355571,0.011999139,0.269435203,-0.84,-2.49,9.92,0,0,0
804,0.059995693,0.037088247,0.335975881,-0.83,-2.32,9.65,0,0,0
805,0.071994832,-0.038179077,0.369791635,-0.72,-2.41,8.91,0,0,0
806,0.110173909,-0.022907446,0.326158404,-0.88,-2.41,8.89,0,0,0
807,0.201803695,-0.037088247,0.303250958,-0.84,-2.44,9.54,0,0,0
808,0.267253542,0.031634093,0.294524311,-0.92,-2.38,9.59,0,0,0
809,0.248709418,0.011999139,0.29343348,-0.88,-2.37,9.67,0,0,0
810,0.203985356,-0.04145157,0.303250958,-0.84,-2.39,9.6,0,0,0
811,0.188713725,-0.078539816,0.316340927,-0.89,-2.44,9.55,0,0,0
812,0.220347818,-0.138535509,0.318522588,-0.79,-2.27,9.75,0,0,0
813,0.241073603,-0.081812309,0.343611696,-0.97,-2.24,9.53,0,0,0
814,0.197440372,-0.052359878,0.346884189,-1.18,-2.33,9.55,0,0,0
815,0.203985356,-0.052359878,0.329430896,-1.3,-2.46,9.59,0,0,0
816,0.179987079,-0.05563237,0.271616865,-1.05,-2.4,9.43,0,0,0
817,0.200712864,-0.06981317,0.259617726,-0.85,-2.34,9.61,0,0,0
818,0.208348679,-0.049087385,0.273798526,-0.83,-2.28,9.82,0,0,0
819,0.198531202,-0.035997416,0.303250958,-1.01,-2.32,10.02,0,0,0
820,0.143989663,-0.037088247,0.358883327,-1.24,-2.27,9.85,0,0,0
821,0.115628063,-0.037088247,0.373064128,-1.43,-2.38,9.5,0,0,0
822,0.202894526,-0.029452431,0.454876436,-1.22,-2.53,9.89,0,0,0
823,0.246527757,0.003272492,0.430878159,-1.11,-2.39,10.22,0,0,0
824,0.09817477,-0.007635815,0.327249235,-1.2,-2.44,10.19,0,0,0
825,0.04145157,-0.021816616,0.302160127,-0.97,-2.33,9.99,0,0,0
826,-0.002181662,-0.064359016,0.289070157,-0.76,-2.28,9.75,0,0,0
827,-0.022907446,-0.178896248,0.262890219,-0.8,-2.19,9.46,0,0,0
828,0.004363323,-0.18107791,0.275980188,-1.07,-2.27,9.43,0,0,0
829,0.039269908,-0.145080494,0.285797665,-1.22,-2.31,9.46,0,0,0
830,0.065449847,-0.026179939,0.357792497,-0.78,-2.27,9.68,0,0,0
831,0.073085662,0.008726646,0.415606528,-0.49,-2.17,9.59,0,0,0
832,-0.006544985,-0.022907446,0.377427451,-0.73,-2.25,9.03,0,0,0
833,0.061086524,-0.101447263,0.341430035,-0.78,-2.24,9.27,0,0,0
834,0.127627202,-0.126536371,0.319613419,-1.17,-2.27,9.83,0,0,0
835,0.006544985,-0.112355571,0.194167879,-1.25,-2.3,9.37,0,0,0
836,-0.009817477,-0.092720617,0.138535509,-0.88,-2.18,8.99,0,0,0
837,0.025089108,-0.042542401,0.151625479,-0.93,-2.27,8.89,0,0,0
838,0.176714587,-0.019634954,0.248709418,-1.06,-2.33,9.43,0,0,0
839,0.248709418,-0.021816616,0.260708557,-0.85,-2.33,10.53,0,0,0
840,0.193077049,0.021816616,0.273798526,-0.78,-2.32,10.5,0,0,0
841,-0.101447263,0.008726646,0.280343511,-1,-2.47,9.82,0,0,0
842,-0.173442094,0.021816616,0.267253542,-1.07,-2.55,8.8,0,0,0
843,-0.059995693,0.037088247,0.241073603,-1.02,-2.47,8.61,0,0,0
844,0.046905724,0.054541539,0.239982772,-1.1,-2.64,9.14,0,0,0
845,0.115628063,0.049087385,0.219256987,-1.15,-2.68,9.44,0,0,0
846,0.145080494,0.081812309,0.203985356,-0.84,-2.71,9.9,0,0,0
847,0.066540678,0.087266463,0.215984495,-0.89,-2.84,9.64,0,0,0
848,0.019634954,0.037088247,0.22252948,-0.54,-2.77,9.57,0,0,0
849,-0.032724923,0,0.207257849,-1.15,-2.75,8.82,0,0,0
850,0.003272492,0.005454154,0.190895387,-1.33,-2.83,8.95,0,0,0
851,0.090538955,0.022907446,0.15380714,-1.38,-2.85,9.18,0,0,0
852,0.176714587,0.051269047,0.064359016,-1.21,-2.85,10.24,0,0,0
853,0.146171325,0.088357293,0.046905724,-1.04,-2.73,10.23,0,0,0
854,-0.013089969,0.091629786,0.046905724,-0.96,-2.55,9.88,0,0,0
855,-0.034906585,0.030543262,0.040360739,-1.13,-2.51,9.61,0,0,0
856,-0.016362462,-0.004363323,0.037088247,-0.92,-2.37,9.72,0,0,0
857,0.006544985,0.047996554,0.050178216,-1.4,-2.56,9.61,0,0,0
858,0,0.063268185,0.045814893,-1.56,-2.64,9.64,0,0,0
859,0.011999139,0.094902278,0.033815754,-1.52,-2.63,9.72,0,0,0
860,0.013089969,0.148352986,0.018544123,-0.77,-2.34,9.65,0,0,0
861,0.015271631,0.061086524,-0.007635815,-0.91,-2.29,9.51,0,0,0
862,0.013089969,0.0283616,-0.013089969,-1.13,-2.3,9.52,0,0,0
863,0.136353848,-0.126536371,-0.016362462,-0.83,-2.06,9.61,0,0,0
864,0.159261294,-0.145080494,-0.022907446,-1.25,-2.14,9.21,0,0,0
865,0.148352986,-0.006544985,-0.017453293,-0.82,-1.85,9.18,0,0,0
866,0.197440372,-0.017453293,-0.005454154,-0.83,-1.72,9.02,0,0,0
867,0.262890219,-0.019634954,0.009817477,-1.22,-1.87,9.34,0,0,0
868,0.379609112,0.088357293,0.019634954,-1.59,-1.99,10.35,0,0,0
869,0.407970713,0.206167018,0.025089108,-1.47,-1.88,11.09,0,0,0
870,0.351247512,0.289070157,0.0283616,-1.08,-1.63,11.51,0,0,0
871,0.040360739,0.315250096,0.033815754,-0.34,-1.21,11.24,0,0,0
872,-0.065449847,0.298887634,0.079630647,-0.47,-1.1,11.21,0,0,0
873,-0.09817477,0.143989663,0.104719755,-1.07,-1.17,11.75,0,0,0
874,-0.310886773,0.004363323,0.154897971,-1.08,-1.31,11.56,0,0,0
875,-0.39051742,-0.035997416,0.16689711,-1.16,-1.59,11.86,0,0,0
876,-0.572686161,0.0283616,0.272707696,-2.06,-2.07,12.85,0,0,0
877,-0.694859208,0.174532925,0.280343511,-2.46,-2.08,13.28,0,0,0
878,-1.083194967,0.387244928,0.268344372,-1.76,-2.31,11.57,0,0,0
879,-1.77041836,0.565050345,0.345793358,-0.91,-2.05,10.92,0,0,0
880,-1.958041255,0.726493301,0.531234591,-0.63,-2.02,9.87,0,0,0
881,-2.052943533,0.706858347,0.747219086,-0.32,-2.04,7.41,0,0,0
882,-1.939497131,0.307614281,0.659952623,-1.18,-2.72,6.72,0,0,0
883,-1.767145868,-0.065449847,0.398153236,-1.48,-2.71,6.46,0,0,0
884,-1.355902663,-0.665406777,-0.15380714,-1.4,-3.65,6.45,0,0,0
885,-1.215185492,-0.699222532,-0.329430896,-1.62,-3.66,6.42,0,0,0
886,-0.980656873,-0.44614979,-0.230165295,-1.42,-3.81,5.49,0,0,0
887,-0.783216502,-0.329430896,-0.093811447,-1.06,-3.69,5.27,0,0,0
888,-0.581412807,-0.26507188,0.067631509,-1.24,-3.59,4.95,0,0,0
889,-0.355610835,-0.133081355,0.311977604,-1.97,-3.72,3.71,0,0,0
890,0.354520004,0.212712003,0.493055514,-2.1,-3.57,3.16,0,0,0
891,0.812668933,0.342520866,0.59995693,-1.63,-3.54,3.11,0,0,0
892,1.411535033,0.22362031,0.650135146,-0.2,-2.66,5.5,0,0,0
893,2.371466121,-0.594502776,0.525780437,-1.23,-2.69,6.76,0,0,0
894,2.771801018,-1.060287521,0.498509668,-2.71,-2.95,11.98,0,0,0
895,2.610358063,-0.931569488,0.270526034,-2.62,-2.87,12.59,0,0,0
896,2.191479042,-0.54323373,0.157079633,-2.76,-2.67,12.78,0,0,0
897,1.443169125,-0.092720617,0.026179939,-2.81,-2.05,13.18,0,0,0
898,1.063560013,0.247618588,0.020725785,-3.28,-2,13.18,0,0,0
899,0.853029672,0.594502776,0.162533787,-3.16,-1.94,13.44,0,0,0
900,0.41887902,0.726493301,0.197440372,-0.47,-1.06,12.77,0,0,0
901,0.186532064,0.771217363,0.226892803,-0.23,-0.91,12.16,0,0,0
902,0.044724062,0.639226839,0.280343511,0.06,-0.77,10.97,0,0,0
903,0.056723201,0.063268185,0.148352986,-0.69,-1.28,10.7,0,0,0
904,0.126536371,-0.145080494,0.02727077,-0.68,-1.22,10.86,0,0,0
905,0.18107791,-0.206167018,-0.013089969,-1.02,-1.52,11.94,0,0,0
906,0.090538955,-0.124354709,-0.035997416,-1.12,-1.57,11.65,0,0,0
907,-0.066540678,0.001090831,0.018544123,-1.22,-1.72,11.33,0,0,0
908,-0.082903139,-0.191986218,0.109083078,-0.97,-1.95,11.54,0,0,0
909,-0.131990525,-0.165806279,0.117809725,-1.28,-2.08,11.35,0,0,0
910,-0.178896248,-0.119991386,0.100356432,-1.55,-2.16,10.76,0,0,0
911,-0.182168741,-0.213802833,0.038179077,-1.67,-2.08,10.16,0,0,0
912,-0.147262156,-0.280343511,0.026179939,-1.86,-2.16,9.86,0,0,0
913,-0.04145157,-0.266162711,0.021816616,-1.5,-2.03,10.02,0,0,0
914,0.134172186,-0.378518282,-0.015271631,-1.35,-2.02,10.7,0,0,0
915,0.105810586,-0.388335759,-0.022907446,-1.76,-2.04,11.11,0,0,0
916,-0.217075326,-0.193077049,-0.053450708,-1.88,-2.01,10.25,0,0,0
917,-0.39051742,-0.05563237,-0.073085662,-1.93,-2,9.3,0,0,0
918,-0.44614979,0.018544123,-0.117809725,-1.45,-1.89,7.99,0,0,0
919,-0.26507188,0.010908308,-0.15380714,-0.77,-1.73,7.44,0,0,0
920,-0.12544554,-0.070904001,-0.128718032,-0.56,-1.64,7.38,0,0,0
921,0.005454154,-0.106901417,-0.074176493,-0.38,-1.58,7.3,0,0,0
922,0.189804556,-0.247618588,0.035997416,-0.65,-1.63,7.71,0,0,0
923,0.220347818,-0.281434342,0.086175632,-1.14,-1.68,7.76,0,0,0
924,0.202894526,-0.246527757,0.11126474,-1.49,-1.83,7.41,0,0,0
925,0.183259571,-0.082903139,0.094902278,-1.27,-1.93,7.33,0,0,0
926,0.214893664,-0.030543262,0.086175632,-0.82,-1.68,7.56,0,0,0
927,0.217075326,0.018544123,0.116718894,-0.92,-1.65,7.29,0,0,0
928,0.239982772,0.037088247,0.136353848,-0.86,-1.58,7.29,0,0,0
929,0.30652345,0.004363323,0.155988802,-1.15,-1.62,7.73,0,0,0
930,0.413424867,-0.064359016,0.190895387,-1.3,-1.64,8.01,0,0,0
931,0.421060682,-0.002181662,0.202894526,-1.6,-1.62,8.1,0,0,0
932,0.413424867,0.077448986,0.19525871,-1.43,-1.59,8.33,0,0,0
933,0.485419698,0.071994832,0.165806279,-1.55,-1.56,9.46,0,0,0
934,0.506145483,-0.068722339,0.127627202,-1.32,-1.35,10.66,0,0,0
935,0.39051742,-0.040360739,0.116718894,-1.5,-1.34,10.49,0,0,0
936,0.11126474,0.194167879,0.089448124,-1.63,-1.4,10.83,0,0,0
937,0.035997416,0.229074464,0.064359016,-1.47,-1.28,10.72,0,0,0
938,-0.052359878,0.326158404,0.038179077,-1.23,-1.26,10.62,0,0,0
939,-0.033815754,0.296705973,0.039269908,-0.94,-1.21,10.65,0,0,0
940,-0.019634954,0.235619449,0.040360739,-1.09,-1.33,11.21,0,0,0
941,0.013089969,0.127627202,0.074176493,-1.44,-1.52,11.42,0,0,0
942,-0.037088247,0.110173909,0.078539816,-1.64,-1.64,11.42,0,0,0
943,-0.064359016,0.121082217,0.079630647,-1.57,-1.69,11.56,0,0,0
944,-0.123263878,0.09708394,0.074176493,-1.43,-1.68,11.14,0,0,0
945,-0.127627202,0.117809725,0.074176493,-1.62,-1.75,11.06,0,0,0
946,-0.076358155,0.128718032,0.066540678,-1.63,-1.82,11.4,0,0,0
947,0.032724923,0.076358155,-0.004363323,-1.44,-1.71,11.68,0,0,0
948,0.058904862,0.013089969,-0.030543262,-1.36,-1.65,11.71,0,0,0
949,0.067631509,-0.242164434,-0.040360739,-1.51,-1.55,11.85,0,0,0
950,0.025089108,-0.208348679,-0.034906585,-1.67,-1.57,11.42,0,0,0
951,-0.044724062,-0.161442956,-0.047996554,-1.2,-1.33,10.96,0,0,0
952,-0.020725785,-0.253072742,-0.092720617,-1.1,-1.3,10.75,0,0,0
953,0,-0.273798526,-0.092720617,-1.15,-1.29,10.74,0,0,0
954,0.019634954,-0.297796804,-0.077448986,-1.08,-1.27,10.75,0,0,0
955,-0.049087385,-0.304341788,-0.042542401,-1.19,-1.36,9.9,0,0,0
956,-0.073085662,-0.286888496,-0.032724923,-1.17,-1.35,9.62,0,0,0
957,-0.074176493,-0.273798526,-0.026179939,-0.84,-1.25,9.34,0,0,0
958,0,-0.369791635,-0.015271631,-1.17,-1.32,9.37,0,0,0
959,0.001090831,-0.37633662,-0.029452431,-1.25,-1.41,9.42,0,0,0
960,-0.085084801,-0.215984495,-0.056723201,-0.83,-1.27,8.9,0,0,0
961,-0.115628063,-0.127627202,-0.04145157,-0.89,-1.38,8.66,0,0,0
962,-0.11126474,-0.056723201,-0.0141808,-0.87,-1.4,8.3,0,0,0
963,-0.020725785,-0.09817477,0.006544985,-0.92,-1.42,8.3,0,0,0
964,0.038179077,-0.140717171,0.020725785,-1.04,-1.42,8.41,0,0,0
965,0.085084801,-0.13962634,0.051269047,-1.11,-1.41,8.79,0,0,0
966,0.044724062,-0.059995693,0.004363323,-1.39,-1.52,8.2,0,0,0
967,-0.020725785,-0.061086524,-0.043633231,-1.1,-1.48,8.03,0,0,0
968,-0.019634954,-0.064359016,-0.06981317,-0.55,-1.3,7.98,0,0,0
969,0.033815754,-0.103628924,-0.045814893,-0.53,-1.29,8.11,0,0,0
970,0.030543262,-0.099265601,-0.018544123,-0.64,-1.25,8,0,0,0
971,-0.032724923,0.054541539,0.042542401,-0.53,-1.2,7.15,0,0,0
972,0.011999139,0.093811447,0.05563237,-0.45,-1.19,7.22,0,0,0
973,0.080721478,0.09708394,0.068722339,-0.64,-1.27,8.12,0,0,0
974,0.165806279,0.08399397,0.073085662,-0.61,-1.23,8.5,0,0,0
975,0.136353848,0.15271631,0.082903139,-0.71,-1.24,8.72,0,0,0
976,0.075267324,0.227983634,0.093811447,-1.26,-1.35,9.46,0,0,0
977,-0.049087385,0.233437787,0.068722339,-1.12,-1.31,9.64,0,0,0
978,-0.157079633,0.356701666,0.034906585,-1.19,-1.34,9.37,0,0,0
979,-0.200712864,0.394880743,0.009817477,-0.71,-1.3,9.38,0,0,0
980,-0.081812309,0.258526895,0.047996554,-0.86,-1.42,9.74,0,0,0
981,-0.0141808,0.217075326,0.089448124,-1.65,-1.64,10.61,0,0,0
982,0.002181662,0.233437787,0.09817477,-1.67,-1.63,10.88,0,0,0
983,-0.029452431,0.22362031,0.066540678,-1.67,-1.6,11.06,0,0,0
984,-0.063268185,0.194167879,0.046905724,-1.78,-1.6,11.28,0,0,0
985,-0.13962634,0.218166156,0.017453293,-1.75,-1.61,11.2,0,0,0
986,-0.201803695,0.267253542,-0.008726646,-1.17,-1.55,10.88,0,0,0
987,-0.231256126,0.307614281,-0.016362462,-1.02,-1.52,10.85,0,0,0
988,-0.239982772,0.254163572,0.007635815,-1.08,-1.61,10.38,0,0,0
989,-0.212712003,0.188713725,0.031634093,-1.17,-1.72,10.07,0,0,0
990,-0.101447263,0.092720617,0.0141808,-1.19,-1.8,10.2,0,0,0
991,-0.045814893,0.056723201,0.018544123,-1.25,-1.85,10.31,0,0,0
992,-0.016362462,0.020725785,0.025089108,-1.69,-1.89,10.43,0,0,0
993,-0.015271631,-0.001090831,-0.006544985,-1.7,-1.87,10.34,0,0,0
994,-0.02727077,0.025089108,-0.040360739,-1.63,-1.78,10.09,0,0,0
995,-0.007635815,0.026179939,-0.057814031,-1.4,-1.68,10.08,0,0,0
996,0.071994832,-0.016362462,-0.052359878,-1.17,-1.53,10.27,0,0,0
997,0.095993109,-0.042542401,-0.038179077,-1.26,-1.5,10.5,0,0,0
998,0.092720617,-0.080721478,-0.0283616,-1.54,-1.5,10.41,0,0,0
999,-0.015271631,-0.032724923,-0.033815754,-1.53,-1.5,9.88,0,0,0
1000,-0.045814893,-0.017453293,-0.044724062,-1.42,-1.51,9.83,0,0,0
1001,-0.015271631,-0.103628924,-0.054541539,-1.35,-1.43,9.75,0,0,0
1002,-0.019634954,-0.073085662,-0.029452431,-1.59,-1.55,9.44,0,0,0
1003,-0.0141808,-0.001090831,-0.017453293,-1.23,-1.47,9.34,0,0,0
1004,0.008726646,0.038179077,-0.005454154,-1.18,-1.49,9.33,0,0,0
1005,0.0283616,0.051269047,0.0283616,-1.31,-1.59,9.67,0,0,0
1006,0.046905724,-0.0283616,0.045814893,-1.42,-1.6,9.62,0,0,0
1007,-0.013089969,-0.023998277,0.0141808,-1.46,-1.62,9.18,0,0,0
1008,-0.0283616,-0.021816616,0.009817477,-1.53,-1.66,9.09,0,0,0
1009,-0.006544985,-0.062177355,-0.0141808,-1.4,-1.62,9.13,0,0,0
1010,0.075267324,-0.037088247,-0.008726646,-1.5,-1.58,9.49,0,0,0
1011,0.103628924,-0.008726646,0.004363323,-1.77,-1.64,9.84,0,0,0
1012,0.075267324,0,-0.007635815,-1.55,-1.65,9.98,0,0,0
1013,0.033815754,-0.023998277,-0.032724923,-1.27,-1.55,10,0,0,0
1014,-0.042542401,-0.062177355,-0.035997416,-1.19,-1.55,9.5,0,0,0
1015,-0.061086524,-0.053450708,-0.030543262,-1.1,-1.51,9.18,0,0,0
1016,-0.034906585,-0.045814893,-0.022907446,-1.2,-1.54,9.19,0,0,0
1017,0.06981317,0.011999139,0.008726646,-1.1,-1.66,9.67,0,0,0
1018,0.088357293,0.0141808,0,-0.79,-1.62,9.98,0,0,0
1019,0.067631509,-0.018544123,-0.015271631,-0.47,-1.53,9.98,0,0,0
1020,0.004363323,-0.131990525,-0.016362462,-0.53,-1.62,9.92,0,0,0
1021,-0.008726646,-0.130899694,-0.011999139,-0.52,-1.59,10.13,0,0,0
1022,-0.093811447,-0.034906585,-0.017453293,-0.38,-1.61,9.73,0,0,0
1023,-0.119991386,0.058904862,-0.010908308,0.1,-1.46,9.2,0,0,0
1024,-0.095993109,0.046905724,0.002181662,0,-1.57,9.37,0,0,0
1025,0.058904862,-0.074176493,0.082903139,-0.73,-1.8,9.99,0,0,0
1026,0.101447263,-0.118900555,0.106901417,-1.02,-1.85,10.24,0,0,0
1027,0.09817477,-0.160352125,0.106901417,-1.34,-1.93,10.2,0,0,0
1028,-0.039269908,-0.029452431,0.046905724,-1.27,-1.9,9.85,0,0,0
1029,-0.088357293,0.0283616,-0.005454154,-1.01,-1.79,9.82,0,0,0
1030,-0.088357293,0.043633231,-0.033815754,-1,-1.71,9.63,0,0,0
1031,-0.088357293,0.043633231,-0.033815754,-0.94,-1.62,9.42,0,0,0
1032,-0.035997416,0.010908308,0.010908308,-1.07,-1.55,9.37,0,0,0
1033,-0.010908308,-0.015271631,0.032724923,-1.32,-1.67,9.29,0,0,0
1034,0.064359016,-0.059995693,0.045814893,-1.35,-1.66,9.37,0,0,0
1035,0.11126474,-0.081812309,0.056723201,-1.53,-1.68,9.48,0,0,0
1036,0.170169602,-0.109083078,0.057814031,-1.47,-1.62,9.91,0,0,0
1037,0.18107791,-0.087266463,0.049087385,-1.43,-1.63,9.94,0,0,0
1038,0.149443817,-0.054541539,0.020725785,-1.41,-1.56,10.34,0,0,0
1039,0.100356432,-0.052359878,0.006544985,-1.49,-1.59,10.24,0,0,0
1040,-0.052359878,0.021816616,-0.026179939,-1.52,-1.57,9.73,0,0,0
1041,-0.013089969,-0.049087385,-0.044724062,-1.12,-1.42,9.54,0,0,0
1042,-0.013089969,-0.049087385,-0.044724062,-0.9,-1.34,9.51,0,0,0
1043,0.081812309,-0.070904001,0.008726646,-0.88,-1.35,9.55,0,0,0
1044,0.099265601,-0.081812309,0.034906585,-0.72,-1.24,9.67,0,0,0
1045,0.102538094,-0.066540678,0.064359016,-0.73,-1.19,9.56,0,0,0
1046,0.150534648,-0.109083078,0.088357293,-0.92,-1.31,9.57,0,0,0
1047,0.170169602,-0.161442956,0.087266463,-0.91,-1.34,9.78,0,0,0
1048,0.145080494,-0.136353848,0.086175632,-0.97,-1.31,10.05,0,0,0
1049,0.006544985,-0.010908308,0.085084801,-0.97,-1.28,9.68,0,0,0
1050,-0.029452431,0.051269047,0.099265601,-0.96,-1.22,9.31,0,0,0
1051,0.067631509,0.040360739,0.104719755,-1.24,-1.35,9.49,0,0,0
1052,0.106901417,0.023998277,0.105810586,-1.28,-1.36,9.68,0,0,0
1053,0.126536371,-0.033815754,0.092720617,-1.3,-1.41,9.85,0,0,0
1054,0.15380714,-0.161442956,0.090538955,-1.06,-1.36,9.9,0,0,0
1055,0.131990525,-0.162533787,0.09817477,-1.13,-1.32,9.85,0,0,0
1056,0.118900555,-0.080721478,0.11126474,-1.35,-1.42,9.89,0,0,0
1057,0.019634954,0.020725785,0.047996554,-1.68,-1.4,10.49,0,0,0
1058,-0.093811447,0.09708394,0.022907446,-1.65,-1.46,10.12,0,0,0
1059,-0.09708394,0.116718894,-0.007635815,-1,-1.32,9.34,0,0,0
1060,-0.039269908,0.104719755,0.005454154,-0.84,-1.26,9.32,0,0,0
1061,0.021816616,0.057814031,0.026179939,-0.87,-1.26,9.48,0,0,0
1062,0.067631509,-0.015271631,0.052359878,-0.98,-1.23,9.31,0,0,0
1063,0.09708394,-0.016362462,0.064359016,-1.15,-1.26,9.33,0,0,0
1064,0.134172186,-0.030543262,0.04145157,-1.17,-1.28,9.85,0,0,0
1065,0.074176493,0.050178216,0.003272492,-1.1,-1.26,9.77,0,0,0
1066,0.044724062,0.046905724,-0.010908308,-0.88,-1.15,9.59,0,0,0
1067,0.073085662,-0.003272492,0.032724923,-0.83,-1.14,9.6,0,0,0
1068,0.089448124,-0.011999139,0.047996554,-0.97,-1.16,9.85,0,0,0
1069,0.062177355,-0.026179939,0.042542401,-0.91,-1.08,10.04,0,0,0
1070,-0.057814031,0.092720617,0.033815754,-0.94,-1.09,9.44,0,0,0
1071,-0.049087385,0.142898833,0.046905724,-0.83,-1.06,9.26,0,0,0
1072,0.044724062,0.053450708,0.100356432,-1.05,-1.21,9.96,0,0,0
1073,0.056723201,0.010908308,0.128718032,-1.22,-1.17,10.07,0,0,0
1074,0.013089969,0.065449847,0.118900555,-1.23,-1.43,10.16,0,0,0
1075,-0.039269908,0.114537232,0.088357293,-1.56,-1.29,9.91,0,0,0
1076,-0.093811447,0.164715448,0.05563237,-1.65,-1.35,9.74,0,0,0
1077,-0.090538955,0.22362031,0.029452431,-1.26,-1.13,9.55,0,0,0
1078,-0.02727077,0.124354709,0.021816616,-1.34,-1.28,9.51,0,0,0
1079,0.04145157,0.095993109,0.050178216,-1.49,-1.24,10,0,0,0
1080,0.031634093,0.077448986,0.06981317,-1.67,-1.31,9.88,0,0,0
1081,0.040360739,0.064359016,0.061086524,-1.77,-1.27,9.82,0,0,0
1082,0.011999139,0.053450708,0.054541539,-2.03,-1.3,9.56,0,0,0
1083,0.058904862,0.046905724,0.035997416,-1.86,-1.3,9.7,0,0,0
1084,0.065449847,0.057814031,0.019634954,-1.84,-1.31,9.71,0,0,0
1085,0.09708394,0.077448986,0.007635815,-1.39,-1.17,9.61,0,0,0
1086,0.103628924,0.034906585,-0.017453293,-1.25,-0.98,9.58,0,0,0
1087,0.088357293,-0.003272492,0,-1.16,-1.03,9.72,0,0,0
1088,0.067631509,-0.075267324,0.026179939,-1.18,-1.13,9.78,0,0,0
1089,0.059995693,-0.035997416,0.02727077,-1.19,-0.99,9.62,0,0,0
1090,0.074176493,0.023998277,0.045814893,-1.07,-0.99,9.53,0,0,0
1091,0.062177355,0.013089969,0.042542401,-1.02,-1.07,9.48,0,0,0
1092,0.088357293,0.009817477,0.049087385,-0.91,-0.88,9.49,0,0,0
1093,0.179987079,-0.086175632,0.090538955,-1.1,-1,10.05,0,0,0
1094,0.089448124,-0.034906585,0.099265601,-1.4,-1.2,9.85,0,0,0
1095,0.075267324,0.001090831,0.100356432,-1.8,-1.34,9.6,0,0,0
1096,0.079630647,-0.052359878,0.053450708,-1.76,-1.45,9.49,0,0,0
1097,0.15380714,-0.09817477,0.038179077,-1.76,-1.37,9.93,0,0,0
1098,0.046905724,-0.0141808,0.034906585,-1.92,-1.46,10.11,0,0,0
1099,-0.011999139,0.032724923,0.023998277,-1.81,-1.5,9.86,0,0,0
1100,-0.015271631,0.039269908,-0.003272492,-1.52,-1.24,9.59,0,0,0
1101,0.025089108,-0.044724062,-0.034906585,-1.37,-1.13,9.86,0,0,0
1102,-0.005454154,-0.044724062,-0.046905724,-1.13,-1.01,9.8,0,0,0
1103,-0.021816616,-0.005454154,-0.026179939,-1.13,-0.95,9.47,0,0,0
1104,0.004363323,-0.034906585,-0.008726646,-1.13,-1,9.48,0,0,0
1105,0.040360739,-0.02727077,-0.002181662,-1.14,-0.94,9.51,0,0,0
1106,0.071994832,-0.017453293,-0.005454154,-1.39,-1.03,10.05,0,0,0
1107,0.019634954,-0.003272492,-0.022907446,-1.29,-1.03,10.01,0,0,0
1108,-0.026179939,0.025089108,-0.019634954,-0.99,-0.91,9.73,0,0,0
1109,-0.018544123,0.040360739,0.006544985,-1.13,-0.96,9.63,0,0,0
1110,-0.023998277,0.0283616,0.022907446,-1.25,-1,9.6,0,0,0
1111,-0.002181662,0.002181662,0.019634954,-1.47,-1.07,9.64,0,0,0
1112,0.003272492,-0.020725785,0.009817477,-1.62,-1.17,9.65,0,0,0
1113,0.004363323,-0.066540678,-0.018544123,-1.51,-1.13,9.79,0,0,0
1114,-0.025089108,-0.017453293,-0.011999139,-1.16,-0.99,9.71,0,0,0
1115,-0.035997416,0.035997416,0.008726646,-1.4,-1.01,9.44,0,0,0
1116,-0.006544985,0.04145157,0.013089969,-1.17,-1.06,9.85,0,0,0
1117,0.026179939,-0.059995693,-0.030543262,-1.1,-1.03,9.89,0,0,0
1118,0.002181662,-0.0283616,-0.019634954,-1.12,-1.06,9.74,0,0,0
1119,0.019634954,-0.020725785,0.001090831,-1.27,-1.05,9.69,0,0,0
1120,0.026179939,-0.004363323,-0.006544985,-1.25,-1.04,9.82,0,0,0
1121,0.0283616,-0.005454154,-0.009817477,-1.25,-1,9.9,0,0,0
1122,-0.017453293,0.0283616,-0.011999139,-1.07,-1,9.72,0,0,0
1123,-0.016362462,0.0283616,-0.009817477,-0.96,-1.01,9.74,0,0,0
1124,-0.008726646,0.011999139,-0.001090831,-0.94,-1.02,9.79,0,0,0
1125,0.006544985,0.015271631,0.007635815,-1.31,-1.12,9.67,0,0,0
1126,0.025089108,0.004363323,0.002181662,-1.34,-1.14,9.74,0,0,0
1127,0.019634954,0.008726646,0.007635815,-1.27,-1.16,9.91,0,0,0
1128,-0.019634954,0.026179939,0.004363323,-1.28,-1.17,9.72,0,0,0
1129,-0.016362462,0.025089108,0.001090831,-1.16,-1.11,9.66,0,0,0
1130,0.032724923,0.003272492,-0.008726646,-1.14,-1.02,9.64,0,0,0
1131,0.030543262,0.0141808,0.003272492,-1.29,-1.04,9.51,0,0,0
1132,0.056723201,0.001090831,0.007635815,-1.34,-1.02,9.58,0,0,0
1133,0.074176493,-0.033815754,0.017453293,-1.38,-1.04,10.12,0,0,0
1134,0.019634954,0.022907446,0.022907446,-1.5,-1.08,10.04,0,0,0
1135,-0.025089108,0.031634093,0.005454154,-1.29,-1.06,9.75,0,0,0
1136,-0.002181662,0.02727077,0.005454154,-1.38,-1.08,9.77,0,0,0
1137,-0.006544985,0.004363323,-0.001090831,-1.21,-1.12,9.68,0,0,0
1138,-0.022907446,-0.016362462,-0.032724923,-1.01,-1,9.65,0,0,0
1139,-0.001090831,-0.009817477,-0.016362462,-1.02,-1.01,9.59,0,0,0
1140,0.016362462,-0.011999139,0.006544985,-1.3,-1.06,9.75,0,0,0
1141,0.003272492,0,-0.001090831,-1.33,-1.13,9.8,0,0,0
1142,-0.009817477,0.0141808,-0.017453293,-1.09,-1.01,9.49,0,0,0
1143,0.023998277,-0.023998277,-0.010908308,-1.18,-1.01,9.49,0,0,0
1144,0.063268185,-0.062177355,-0.010908308,-1.19,-0.95,9.69,0,0,0
1145,0.033815754,-0.016362462,0.004363323,-1.41,-0.94,10.02,0,0,0
1146,-0.020725785,0.019634954,0.007635815,-1.29,-0.88,9.91,0,0,0
1147,-0.058904862,0.039269908,0.005454154,-1.15,-0.92,9.55,0,0,0
1148,-0.034906585,0.029452431,0.006544985,-1.16,-0.92,9.52,0,0,0
1149,-0.003272492,0.008726646,0.010908308,-1.35,-1.02,9.78,0,0,0
1150,-0.001090831,0.003272492,0.011999139,-1.3,-1.04,9.83,0,0,0
1151,-0.033815754,0.017453293,0.007635815,-1.18,-1.06,9.63,0,0,0
1152,-0.015271631,0.007635815,0.007635815,-1.25,-1.05,9.64,0,0,0
1153,0.004363323,-0.011999139,0.008726646,-1.27,-1.08,9.96,0,0,0
1154,-0.053450708,0.035997416,0.017453293,-1.31,-1.07,9.82,0,0,0
1155,-0.056723201,0.035997416,0.015271631,-1.32,-1.14,9.43,0,0,0
1156,-0.032724923,-0.011999139,-0.008726646,-1.34,-1.21,9.41,0,0,0
1157,0.065449847,-0.071994832,-0.020725785,-1.4,-1.15,9.77,0,0,0
1158,0.059995693,0.013089969,-0.011999139,-1.57,-1.16,9.79,0,0,0
1159,0.035997416,0.051269047,-0.0283616,-1.11,-1.03,9.82,0,0,0
1160,0.079630647,-0.068722339,-0.023998277,-1.27,-0.99,10.02,0,0,0
1161,0.05563237,-0.110173909,-0.010908308,-1.49,-1.11,10.06,0,0,0
1162,-0.011999139,-0.001090831,-0.020725785,-1.46,-1.2,10.13,0,0,0
1163,-0.049087385,0.051269047,-0.032724923,-1.22,-1.12,9.57,0,0,0
1164,-0.042542401,0.05563237,-0.029452431,-1.15,-1.04,9.42,0,0,0
1165,0.009817477,0.026179939,-0.026179939,-1.35,-1.02,9.52,0,0,0
1166,0.082903139,-0.056723201,-0.026179939,-1.36,-0.97,10.04,0,0,0
1167,0.053450708,-0.017453293,-0.017453293,-1.41,-1.03,10.04,0,0,0
1168,-0.025089108,0.063268185,0.001090831,-1.51,-0.97,9.61,0,0,0
1169,-0.0283616,0.070904001,-0.009817477,-1.48,-1.03,9.58,0,0,0
1170,-0.021816616,0.06981317,-0.021816616,-1.27,-0.92,9.71,0,0,0
1171,0.006544985,-0.0141808,-0.031634093,-1.26,-0.94,9.76,0,0,0
1172,0.009817477,-0.013089969,-0.025089108,-1.26,-1.03,9.82,0,0,0
1173,0.006544985,-0.011999139,-0.021816616,-1.42,-0.96,9.97,0,0,0
1174,-0.025089108,-0.001090831,-0.034906585,-1.77,-1.08,9.56,0,0,0
1175,0.016362462,-0.09708394,-0.063268185,-1.23,-0.88,10.21,0,0,0
1176,-0.089448124,-0.001090831,-0.063268185,-1.4,-1.03,9.85,0,0,0
1177,-0.099265601,0.013089969,-0.050178216,-1.61,-1.04,9.86,0,0,0
1178,-0.090538955,0.025089108,-0.021816616,-1.53,-1.02,9.84,0,0,0
1179,-0.103628924,0.077448986,0,-1.43,-0.98,9.65,0,0,0
1180,-0.056723201,0.094902278,0,-1.45,-1.09,9.51,0,0,0
1181,-0.007635815,0.013089969,0.008726646,-1.62,-1.02,10.09,0,0,0
1182,0.019634954,-0.160352125,0.006544985,-1.76,-1.1,10,0,0,0
1183,-0.001090831,-0.135263017,0.005454154,-1.79,-1.11,9.87,0,0,0
1184,-0.0141808,-0.054541539,-0.013089969,-1.64,-1.04,10.15,0,0,0
1185,-0.065449847,-0.005454154,-0.032724923,-1.56,-0.99,10.07,0,0,0
1186,-0.087266463,-0.007635815,-0.042542401,-1.46,-0.96,9.99,0,0,0
1187,-0.102538094,-0.034906585,-0.035997416,-1.44,-1.03,9.88,0,0,0
1188,-0.114537232,-0.010908308,-0.045814893,-1.22,-0.98,9.84,0,0,0
1189,-0.133081355,0.016362462,-0.038179077,-1.05,-0.93,9.73,0,0,0
1190,-0.090538955,-0.109083078,-0.010908308,-1.15,-0.94,9.66,0,0,0
1191,-0.06981317,-0.137444679,-0.003272492,-1.31,-1.04,9.91,0,0,0
1192,-0.101447263,-0.118900555,-0.008726646,-1.34,-1.17,9.64,0,0,0
1193,-0.213802833,-0.017453293,-0.016362462,-1.37,-1.22,9.28,0,0,0
1194,-0.210530341,0.043633231,-0.013089969,-1.49,-1.3,8.99,0,0,0
1195,-0.070904001,0.089448124,-0.040360739,-1.36,-1.05,9.04,0,0,0
1196,0.002181662,0.094902278,0.016362462,-0.65,-1.08,9.19,0,0,0
1197,0.063268185,0.095993109,0.013089969,-0.92,-0.89,9.69,0,0,0
1198,0.040360739,0.02727077,0.02727077,-1.21,-1.17,9.89,0,0,0
1199,0,0.044724062,0.021816616,-1.21,-1.22,9.93,0,0,0
1200,-0.031634093,0.029452431,-0.007635815,-1.58,-1.34,9.84,0,0,0
1201,0.015271631,-0.128718032,-0.064359016,-1.54,-1.28,10.08,0,0,0
1202,-0.018544123,-0.100356432,-0.081812309,-1.45,-1.24,10.05,0,0,0
1203,-0.076358155,0.019634954,-0.068722339,-1.02,-1.14,9.72,0,0,0
1204,-0.067631509,0.011999139,-0.04145157,-0.9,-1.06,9.71,0,0,0
1205,-0.050178216,-0.013089969,-0.020725785,-1.36,-1.16,9.47,0,0,0
1206,-0.029452431,-0.042542401,-0.015271631,-1.4,-1.19,9.38,0,0,0
1207,-0.006544985,-0.051269047,-0.017453293,-1.31,-1.19,9.37,0,0,0
1208,0.019634954,-0.030543262,-0.015271631,-1.21,-1.24,9.67,0,0,0
1209,0.020725785,-0.030543262,-0.013089969,-1.16,-1.36,9.67,0,0,0
1210,0.006544985,0.005454154,0,-1.18,-1.4,9.56,0,0,0
1211,0.006544985,0.029452431,0.009817477,-0.98,-1.3,9.46,0,0,0
1212,0.0283616,-0.079630647,0.020725785,-1.18,-1.29,9.5,0,0,0
1213,0.047996554,-0.091629786,0.009817477,-1.7,-1.31,9.83,0,0,0
1214,0.017453293,-0.08399397,-0.050178216,-1.52,-1.34,9.94,0,0,0
1215,0.003272492,-0.08399397,-0.075267324,-1.32,-1.33,10,0,0,0
1216,-0.035997416,-0.025089108,-0.079630647,-1.21,-1.49,9.44,0,0,0
1217,-0.050178216,0.032724923,-0.101447263,-0.92,-1.32,9.36,0,0,0
1218,0.008726646,0.021816616,-0.102538094,-0.79,-1.21,9.43,0,0,0
1219,0.042542401,-0.101447263,-0.089448124,-0.61,-1.06,9.74,0,0,0
1220,0.056723201,-0.167987941,-0.046905724,-0.99,-1.25,10.15,0,0,0
1221,0.002181662,-0.109083078,-0.053450708,-0.97,-1.29,9.85,0,0,0
1222,-0.034906585,-0.071994832,-0.053450708,-0.89,-1.34,9.43,0,0,0
1223,-0.02727077,-0.042542401,-0.067631509,-0.8,-1.31,9.29,0,0,0
1224,0.018544123,-0.073085662,-0.08399397,-0.71,-1.21,9.41,0,0,0
1225,0.107992247,-0.043633231,-0.058904862,-0.63,-1.17,9.83,0,0,0
1226,0.107992247,-0.020725785,-0.04145157,-0.72,-1.17,9.94,0,0,0
1227,0.089448124,-0.016362462,-0.031634093,-0.69,-1.21,9.72,0,0,0
1228,0.022907446,0.017453293,0.003272492,-0.72,-1.2,9.59,0,0,0
1229,0.047996554,-0.009817477,0.008726646,-1.15,-1.35,9.58,0,0,0
1230,0.063268185,-0.068722339,-0.001090831,-1.28,-1.26,9.75,0,0,0
1231,0.079630647,-0.033815754,-0.022907446,-1.25,-1.23,9.8,0,0,0
1232,0.057814031,0.003272492,-0.033815754,-1,-1.06,9.82,0,0,0
1233,0,0.196349541,-0.001090831,-0.95,-0.98,9.6,0,0,0
1234,-0.002181662,0.270526034,0.044724062,-1.05,-1.11,9.76,0,0,0
1235,0.062177355,0.220347818,0.051269047,-1.04,-1.25,9.92,0,0,0
1236,0.117809725,-0.008726646,0.005454154,-1.34,-1.07,10.02,0,0,0
1237,0.116718894,-0.047996554,0.007635815,-1.18,-1.11,10.51,0,0,0
1238,0.065449847,-0.079630647,-0.007635815,-1.29,-1.18,10.13,0,0,0
1239,-0.101447263,0.094902278,-0.004363323,-1.25,-1.17,9.94,0,0,0
1240,-0.138535509,0.169078771,-0.042542401,-1.12,-0.94,9.88,0,0,0
1241,-0.184350402,0.245436926,-0.066540678,-1.41,-1.21,9.71,0,0,0
1242,-0.172351264,0.133081355,-0.080721478,-0.69,-1.06,9.71,0,0,0
1243,-0.182168741,0.15380714,-0.051269047,-0.72,-1.06,9.45,0,0,0
1244,-0.179987079,0.169078771,-0.019634954,-0.65,-1.1,9.03,0,0,0
1245,-0.085084801,0.160352125,0.067631509,-0.65,-1.08,8.8,0,0,0
1246,0.018544123,0.150534648,0.119991386,-0.79,-1.13,8.8,0,0,0
1247,0.253072742,0.037088247,0.212712003,-1.54,-1.2,10.16,0,0,0
1248,0.194167879,-0.063268185,0.133081355,-1.57,-1.4,10.06,0,0,0
1249,0.138535509,-0.013089969,0.103628924,-1.31,-1.26,10.02,0,0,0
1250,-0.001090831,0.09708394,0.04145157,-1.03,-1.19,9.91,0,0,0
1251,-0.013089969,0.042542401,0.029452431,-1.02,-1.15,9.93,0,0,0
1252,-0.034906585,-0.001090831,0.025089108,-1.1,-1.05,9.58,0,0,0
1253,-0.057814031,-0.018544123,0.034906585,-1.07,-1.12,9.46,0,0,0
1254,-0.021816616,-0.050178216,0.040360739,-0.98,-1.12,9.44,0,0,0
1255,0.059995693,-0.092720617,0.042542401,-1.04,-1.15,9.82,0,0,0
1256,0.06981317,-0.100356432,0.035997416,-1.13,-1.21,9.89,0,0,0
1257,0.020725785,0.019634954,-0.001090831,-0.72,-1.1,9.83,0,0,0
1258,-0.0283616,0.033815754,-0.017453293,-0.67,-1.13,9.69,0,0,0
1259,-0.0283616,0.015271631,-0.005454154,-0.57,-1.1,9.68,0,0,0
1260,-0.010908308,-0.063268185,0.001090831,-1,-1.18,9.71,0,0,0
1261,-0.005454154,-0.032724923,0.030543262,-1.07,-1.19,9.6,0,0,0
1262,-0.020725785,0.020725785,0.029452431,-1,-1.17,9.57,0,0,0
1263,-0.016362462,0.071994832,0.032724923,-0.98,-1.22,9.42,0,0,0
1264,0.018544123,0.038179077,0.04145157,-0.95,-1.24,9.57,0,0,0
1265,0.04145157,-0.009817477,0.042542401,-1.5,-1.37,9.87,0,0,0
1266,0.051269047,-0.052359878,0.037088247,-1.58,-1.39,9.9,0,0,0
1267,0.021816616,-0.046905724,0.015271631,-1.62,-1.43,9.88,0,0,0
1268,-0.015271631,-0.018544123,-0.034906585,-1.43,-1.38,9.72,0,0,0
1269,-0.009817477,-0.068722339,-0.049087385,-1.34,-1.31,9.75,0,0,0
1270,0.002181662,-0.11126474,-0.053450708,-1.36,-1.33,9.79,0,0,0
1271,-0.007635815,-0.04145157,-0.056723201,-1.14,-1.23,9.79,0,0,0
1272,-0.018544123,-0.016362462,-0.05563237,-1.02,-1.31,9.78,0,0,0
1273,-0.004363323,0.022907446,-0.038179077,-1.27,-1.08,9.57,0,0,0
1274,0.015271631,0.021816616,-0.025089108,-1.05,-1.08,9.96,0,0,0
1275,-0.016362462,0.003272492,-0.037088247,-1.05,-1.03,9.85,0,0,0
1276,-0.032724923,0.005454154,-0.035997416,-0.98,-1.05,9.93,0,0,0
1277,-0.007635815,-0.065449847,-0.025089108,-1.09,-1.08,9.89,0,0,0
1278,-0.018544123,-0.032724923,-0.020725785,-1.32,-1.11,9.85,0,0,0
1279,-0.032724923,-0.011999139,-0.038179077,-1.02,-1.06,9.54,0,0,0
1280,-0.045814893,-0.093811447,-0.090538955,-0.87,-1.05,9.59,0,0,0
1281,-0.009817477,-0.109083078,-0.065449847,-0.94,-1.02,9.7,0,0,0
1282,0.010908308,-0.127627202,-0.04145157,-1.14,-1.02,9.73,0,0,0
1283,0.010908308,-0.077448986,-0.018544123,-1.15,-0.98,9.7,0,0,0
1284,0.010908308,-0.056723201,-0.006544985,-1.09,-1.05,9.83,0,0,0
1285,0.029452431,-0.033815754,0.005454154,-1.34,-1.1,9.97,0,0,0
1286,0.021816616,-0.0283616,0.017453293,-1.36,-1.09,9.97,0,0,0
1287,-0.018544123,-0.013089969,0.002181662,-1.23,-1.1,9.85,0,0,0
1288,-0.042542401,0.010908308,-0.010908308,-1,-1.07,9.59,0,0,0
1289,-0.059995693,0.059995693,-0.0141808,-0.96,-1.03,9.43,0,0,0
1290,-0.020725785,0.049087385,0.009817477,-1.1,-1.14,9.61,0,0,0
1291,0.06981317,-0.015271631,0.046905724,-1.13,-1.17,9.9,0,0,0
1292,0.057814031,-0.003272492,0.043633231,-1.27,-1.2,9.85,0,0,0
1293,0.010908308,0.038179077,0.026179939,-1.08,-1.13,9.54,0,0,0
1294,-0.003272492,0.081812309,0.005454154,-1.02,-1.09,9.58,0,0,0
1295,0.022907446,0.08399397,0.017453293,-1.24,-1.11,9.69,0,0,0
1296,0.033815754,0.058904862,0.020725785,-1.31,-1.19,9.8,0,0,0
1297,0.008726646,0.023998277,-0.001090831,-0.92,-1.17,9.65,0,0,0
1298,-0.011999139,0.039269908,0.007635815,-1.01,-1.2,9.6,0,0,0
1299,0.013089969,0.018544123,0.02727077,-1.12,-1.2,9.72,0,0,0
1300,0.032724923,-0.0141808,0.035997416,-1.47,-1.23,9.68,0,0,0
1301,0.003272492,0.009817477,0.008726646,-1.36,-1.23,9.53,0,0,0
1302,0.030543262,-0.032724923,-0.008726646,-1.16,-1.22,9.88,0,0,0
1303,0.020725785,-0.0141808,-0.005454154,-1.01,-1.18,9.87,0,0,0
1304,-0.004363323,-0.018544123,0.005454154,-1.21,-1.27,9.66,0,0,0
1305,-0.018544123,-0.005454154,0.02727077,-1.39,-1.28,9.63,0,0,0
1306,-0.002181662,-0.010908308,0.0141808,-1.25,-1.22,9.7,0,0,0
1307,0.015271631,-0.039269908,-0.002181662,-1.22,-1.19,9.74,0,0,0
1308,0.018544123,-0.026179939,-0.015271631,-1.18,-1.26,9.8,0,0,0
1309,-0.001090831,-0.018544123,-0.020725785,-1.06,-1.27,9.71,0,0,0
1310,-0.023998277,-0.003272492,-0.018544123,-1.09,-1.2,9.55,0,0,0
1311,0.002181662,-0.016362462,-0.005454154,-1.27,-1.22,9.51,0,0,0
1312,0.018544123,-0.026179939,-0.016362462,-1.27,-1.21,9.58,0,0,0
1313,0.042542401,0.010908308,-0.034906585,-1.19,-1.17,9.82,0,0,0
1314,0.038179077,-0.018544123,-0.046905724,-1.15,-1.1,9.89,0,0,0
1315,0.033815754,-0.009817477,-0.063268185,-0.95,-0.95,9.81,0,0,0
1316,0.022907446,-0.007635815,-0.058904862,-1.01,-0.87,9.68,0,0,0
1317,0.018544123,0.006544985,-0.039269908,-1.13,-0.86,9.66,0,0,0
1318,0.029452431,-0.005454154,-0.029452431,-1.19,-0.85,9.61,0,0,0
1319,0.059995693,-0.008726646,-0.050178216,-1.23,-0.74,9.38,0,0,0
1320,0.090538955,-0.0141808,-0.064359016,-1.3,-0.7,9.42,0,0,0
1321,0.124354709,-0.021816616,-0.081812309,-1.26,-0.66,9.54,0,0,0
1322,0.169078771,-0.025089108,-0.09708394,-1.02,-0.51,9.72,0,0,0
1323,0.167987941,-0.021816616,-0.094902278,-0.91,-0.48,9.75,0,0,0
1324,0.19525871,-0.04145157,-0.058904862,-1.21,-0.38,9.62,0,0,0
1325,0.20943951,-0.032724923,-0.061086524,-1.14,-0.32,9.64,0,0,0
1326,0.234528618,-0.0283616,-0.067631509,-0.89,-0.22,9.69,0,0,0
1327,0.280343511,0.049087385,-0.042542401,-0.73,-0.21,9.76,0,0,0
1328,0.290160988,0.063268185,-0.032724923,-0.43,-0.09,9.82,0,0,0
1329,0.29234265,0.047996554,-0.004363323,-0.35,-0.11,9.8,0,0,0
1330,0.299978465,-0.051269047,0.066540678,-1.36,-0.28,9.69,0,0,0
1331,0.331612558,-0.151625479,0.062177355,-1.81,-0.4,9.82,0,0,0
1332,0.374154958,-0.241073603,0.015271631,-1.61,-0.54,10.5,0,0,0
1333,0.328340066,-0.160352125,-0.068722339,-0.75,-0.44,10.43,0,0,0
1334,0.210530341,-0.032724923,-0.051269047,-0.79,-0.3,9.95,0,0,0
1335,0.085084801,0.073085662,0.021816616,-0.9,-0.6,9.21,0,0,0
1336,0.12544554,0.033815754,0.043633231,-0.94,-0.65,9.16,0,0,0
1337,0.173442094,-0.002181662,0.030543262,-1.2,-0.67,9.98,0,0,0
1338,0.185441233,0.121082217,-0.018544123,-1.43,-0.71,9.68,0,0,0
1339,0.09708394,0.177805418,-0.057814031,-1.32,-0.73,9.59,0,0,0
1340,0.11126474,0.142898833,-0.087266463,-1.08,-0.64,9.85,0,0,0
1341,0.094902278,0.183259571,-0.078539816,-0.93,-0.57,9.68,0,0,0
1342,0.099265601,0.15380714,-0.071994832,-0.65,-0.51,9.66,0,0,0
1343,0.116718894,0.094902278,-0.037088247,-0.45,-0.3,9.51,0,0,0
1344,0.159261294,0.038179077,0.064359016,-1.06,-0.45,9.25,0,0,0
1345,0.224711141,-0.009817477,0.081812309,-1.46,-0.49,9.63,0,0,0
1346,0.232346957,0.063268185,0.080721478,-1.93,-0.67,9.52,0,0,0
1347,0.270526034,0.033815754,-0.002181662,-1.75,-0.56,9.96,0,0,0
1348,0.245436926,0.046905724,-0.064359016,-1.68,-0.41,10.63,0,0,0
1349,0.196349541,0.101447263,-0.169078771,-1.52,-0.3,10.55,0,0,0
1350,0.077448986,0.159261294,-0.217075326,-1.77,-0.49,10.08,0,0,0
1351,0.02727077,0.19525871,-0.249800249,-1.86,-0.54,9.93,0,0,0
1352,-0.029452431,0.136353848,-0.32070425,-1.5,-0.69,9.9,0,0,0
1353,-0.031634093,0.128718032,-0.368700804,-0.8,-0.38,9.59,0,0,0
1354,0.003272492,0.167987941,-0.34797502,-0.57,-0.18,9.41,0,0,0
1355,0.046905724,0.08399397,-0.190895387,-0.54,-0.04,9.04,0,0,0
1356,0.089448124,0.113446401,-0.039269908,-0.79,-0.31,8.56,0,0,0
1357,0.290160988,0.08399397,0.107992247,-1.05,-0.49,9.13,0,0,0
1358,0.414515697,0.022907446,0.15380714,-1.06,-0.41,10.24,0,0,0
1359,0.469057236,-0.039269908,0.169078771,-1.49,-0.49,10.25,0,0,0
1360,0.29234265,-0.043633231,0.143989663,-1.7,-0.52,10.12,0,0,0
1361,0.200712864,-0.0283616,0.08399397,-1.7,-0.58,9.87,0,0,0
1362,0.172351264,-0.004363323,0.037088247,-1.38,-0.49,9.88,0,0,0
1363,0.210530341,-0.061086524,-0.040360739,-1.23,-0.31,10.04,0,0,0
1364,0.187622895,-0.037088247,0.005454154,-1.4,-0.29,10.03,0,0,0
1365,0.188713725,0.008726646,0.054541539,-1.67,-0.43,10.01,0,0,0
1366,0.124354709,0.070904001,0.065449847,-1.28,-0.38,9.86,0,0,0
1367,0.110173909,0.148352986,0.074176493,-1.21,-0.3,9.83,0,0,0
1368,0.138535509,0.101447263,0.09708394,-1.23,-0.26,9.99,0,0,0
1369,0.146171325,0.013089969,0.090538955,-1.13,-0.15,9.81,0,0,0
1370,0.161442956,-0.073085662,0.063268185,-1.36,-0.12,9.65,0,0,0
1371,0.117809725,-0.068722339,-0.022907446,-1.64,-0.39,9.77,0,0,0
1372,0.199622033,-0.075267324,-0.065449847,-1.18,-0.26,9.97,0,0,0
1373,0.229074464,-0.030543262,-0.099265601,-1.35,-0.04,10.01,0,0,0
1374,0.227983634,-0.059995693,-0.115628063,-1.33,-0.08,10.15,0,0,0
1375,0.175623756,-0.071994832,-0.057814031,-1.38,-0.04,10.16,0,0,0
1376,0.137444679,-0.018544123,-0.0141808,-1.39,-0.06,9.95,0,0,0
1377,0.068722339,0.089448124,0.016362462,-1.47,-0.01,9.7,0,0,0
1378,0.068722339,0.082903139,-0.018544123,-1.35,0.15,9.53,0,0,0
1379,0.074176493,0.005454154,-0.115628063,-1.11,0.19,9.42,0,0,0
1380,0.127627202,-0.021816616,-0.114537232,-1.18,0.18,9.52,0,0,0
1381,0.161442956,-0.020725785,-0.112355571,-1.03,0.15,9.75,0,0,0
1382,0.140717171,0,-0.044724062,-0.95,0.28,9.95,0,0,0
1383,0.127627202,0.004363323,0,-1.43,0.35,9.78,0,0,0
1384,0.114537232,-0.089448124,0.032724923,-1.16,0.41,9.81,0,0,0
1385,0.077448986,-0.126536371,-0.043633231,-1.51,0.18,9.71,0,0,0
1386,0.088357293,-0.077448986,-0.079630647,-1.25,0.26,9.81,0,0,0
1387,0.070904001,-0.040360739,-0.104719755,-1.17,0.22,9.71,0,0,0
1388,0.06981317,-0.008726646,-0.105810586,-0.73,0.48,9.71,0,0,0
1389,0.076358155,-0.002181662,-0.078539816,-0.59,0.49,9.68,0,0,0
1390,0.073085662,0.030543262,0.017453293,-1.22,0.49,9.91,0,0,0
1391,0.059995693,-0.033815754,0.029452431,-1.25,0.4,9.85,0,0,0
1392,0.059995693,-0.033815754,0.029452431,-1.43,0.19,9.95,0,0,0
1393,0.010908308,-0.053450708,-0.038179077,-1.49,0.15,9.8,0,0,0
1394,0.010908308,-0.022907446,-0.050178216,-1.36,0.16,9.67,0,0,0
1395,0.011999139,-0.026179939,-0.049087385,-1.13,0.25,9.69,0,0,0
1396,0.026179939,-0.038179077,0.002181662,-0.88,0.4,9.64,0,0,0
1397,0.016362462,-0.022907446,0.037088247,-1.01,0.32,9.64,0,0,0
1398,0.010908308,-0.018544123,0.042542401,-1.5,0.08,9.47,0,0,0
1399,0.02727077,0.019634954,0.021816616,-1.43,0.09,9.76,0,0,0
1400,0.001090831,0.058904862,0.006544985,-1.28,0.08,9.73,0,0,0
1401,-0.015271631,-0.0283616,-0.020725785,-1.21,0.31,9.75,0,0,0
1402,-0.04145157,-0.074176493,-0.047996554,-1.21,0.29,9.77,0,0,0
1403,-0.053450708,-0.068722339,-0.046905724,-1.23,0.23,9.59,0,0,0
1404,-0.049087385,-0.062177355,-0.022907446,-1.41,0.16,9.48,0,0,0
1405,-0.042542401,-0.006544985,-0.009817477,-1.38,0.08,9.56,0,0,0
1406,-0.029452431,-0.005454154,-0.004363323,-1.14,0.17,9.7,0,0,0
1407,-0.045814893,-0.037088247,0.010908308,-1.22,0.18,9.83,0,0,0
1408,-0.062177355,-0.040360739,0.005454154,-1.39,0.17,9.75,0,0,0
1409,-0.074176493,-0.045814893,-0.011999139,-1.37,0.23,9.89,0,0,0
1410,-0.082903139,-0.0141808,-0.02727077,-1.24,0.29,9.9,0,0,0
1411,-0.114537232,-0.016362462,-0.032724923,-1.23,0.21,9.75,0,0,0
1412,-0.109083078,-0.017453293,-0.02727077,-1.09,0.21,9.76,0,0,0
1413,-0.115628063,-0.043633231,0.003272492,-1.01,0.22,9.69,0,0,0
1414,-0.105810586,-0.040360739,0.023998277,-1.09,0.14,9.34,0,0,0
1415,-0.011999139,-0.080721478,0.043633231,-1.18,0.12,9.69,0,0,0
1416,0.005454154,-0.113446401,0.051269047,-1.29,0.08,10.51,0,0,0
1417,-0.039269908,-0.136353848,0.049087385,-1.19,0.09,10.7,0,0,0
1418,-0.258526895,-0.05563237,0.034906585,-1.21,0.06,10.25,0,0,0
1419,-0.273798526,-0.026179939,0.008726646,-1.1,-0.11,9.34,0,0,0
1420,-0.226892803,-0.0141808,0.006544985,-1,-0.15,9.19,0,0,0
1421,-0.08399397,-0.110173909,0.033815754,-1.01,-0.21,9.62,0,0,0
1422,-0.058904862,-0.143989663,0.037088247,-0.69,-0.14,10.18,0,0,0
1423,-0.164715448,-0.115628063,0.085084801,-0.51,-0.26,9.99,0,0,0
1424,-0.184350402,-0.149443817,0.12544554,-0.79,-0.41,9.94,0,0,0
1425,-0.189804556,-0.194167879,0.133081355,-1.3,-0.7,10.04,0,0,0
1426,-0.221438649,-0.309795942,0.112355571,-0.94,-0.48,10.27,0,0,0
1427,-0.282525173,-0.231256126,0.089448124,-1.32,-0.75,9.74,0,0,0
1428,-0.273798526,-0.214893664,0.050178216,-1.27,-0.77,9.71,0,0,0
1429,-0.208348679,-0.286888496,-0.013089969,-1.38,-0.85,10.24,0,0,0
1430,-0.214893664,-0.341430035,-0.047996554,-1.28,-0.92,10.52,0,0,0
1431,-0.381790774,-0.164715448,-0.109083078,-1.02,-0.84,10.21,0,0,0
1432,-0.425424005,-0.130899694,-0.12544554,-0.71,-0.8,9.93,0,0,0
1433,-0.43196899,-0.133081355,-0.12544554,-0.8,-0.88,9.96,0,0,0
1434,-0.499600498,-0.020725785,-0.109083078,-0.64,-0.88,9.81,0,0,0
1435,-0.518144622,-0.023998277,-0.101447263,-0.37,-0.81,9.39,0,0,0
1436,-0.520326283,-0.066540678,-0.107992247,-0.59,-0.86,8.77,0,0,0
1437,-0.335975881,-0.206167018,-0.115628063,-0.72,-0.96,9.5,0,0,0
1438,-0.270526034,-0.22252948,-0.103628924,-0.74,-0.93,9.94,0,0,0
1439,-0.318522588,-0.131990525,-0.077448986,-0.64,-1.02,9.75,0,0,0
1440,-0.433059821,-0.010908308,-0.113446401,-0.87,-1.17,9.38,0,0,0
1441,-0.433059821,0.013089969,-0.138535509,-0.93,-1.21,9.3,0,0,0
1442,-0.319613419,0.004363323,-0.157079633,-0.84,-1.05,9.83,0,0,0
1443,-0.297796804,-0.017453293,-0.141808002,-0.74,-1,10.04,0,0,0
1444,-0.387244928,0.063268185,-0.15380714,-0.58,-1.04,10.05,0,0,0
1445,-0.427605667,0.091629786,-0.146171325,-0.09,-0.94,9.71,0,0,0
1446,-0.426514836,0.061086524,-0.103628924,0.07,-0.95,9.72,0,0,0
1447,-0.402516559,0.0283616,-0.059995693,-0.77,-1.21,9.15,0,0,0
1448,-0.340339204,0.070904001,-0.063268185,-1.16,-1.31,8.96,0,0,0
1449,-0.27816185,0.101447263,-0.071994832,-1.09,-1.23,8.97,0,0,0
1450,-0.107992247,0.095993109,-0.113446401,-0.14,-1.01,10.2,0,0,0
1451,-0.091629786,-0.054541539,-0.191986218,-1.03,-0.59,10.15,0,0,0
1452,-0.193077049,-0.006544985,-0.187622895,-0.78,-0.83,10.67,0,0,0
1453,-0.296705973,0.076358155,-0.185441233,-0.79,-0.83,10.05,0,0,0
1454,-0.346884189,0.146171325,-0.203985356,-0.95,-0.6,9.44,0,0,0
1455,-0.313068435,0.182168741,-0.234528618,-0.61,-0.73,9.37,0,0,0
1456,-0.256345234,0.175623756,-0.234528618,-0.29,-0.65,9.3,0,0,0
1457,-0.22362031,0.164715448,-0.198531202,-0.2,-0.59,9.18,0,0,0
1458,-0.074176493,0.06981317,-0.067631509,-0.22,-0.49,8.92,0,0,0
1459,0.033815754,-0.032724923,-0.009817477,-0.36,-0.42,9.19,0,0,0
1460,0.093811447,-0.219256987,0.059995693,-0.59,-0.31,9.66,0,0,0
1461,0.080721478,-0.20943951,0.080721478,-1.43,-0.47,9.8,0,0,0
1462,0.078539816,-0.186532064,0.075267324,-2.19,-0.69,10.34,0,0,0
1463,-0.049087385,-0.023998277,-0.020725785,-2.09,-0.68,10.35,0,0,0
1464,-0.128718032,0.110173909,-0.053450708,-1.74,-0.55,10.03,0,0,0
1465,-0.157079633,0.203985356,-0.053450708,-1.12,-0.3,9.4,0,0,0
1466,-0.033815754,0.136353848,-0.019634954,-1,-0.19,9.52,0,0,0
1467,0.046905724,0.030543262,-0.005454154,-1.21,-0.2,9.78,0,0,0
1468,0.045814893,-0.061086524,-0.017453293,-1.23,-0.18,10.19,0,0,0
1469,0.010908308,-0.035997416,-0.016362462,-1.08,-0.18,10.16,0,0,0
1470,-0.035997416,0.037088247,0.003272492,-0.76,-0.18,10.05,0,0,0
1471,-0.025089108,0.023998277,0.019634954,-0.65,-0.22,10.05,0,0,0
1472,-0.011999139,0.013089969,0.043633231,-0.64,-0.26,10.16,0,0,0
1473,-0.033815754,0.075267324,0.093811447,-0.56,-0.33,9.89,0,0,0
1474,-0.010908308,0.092720617,0.133081355,-0.4,-0.48,9.37,0,0,0
1475,0.068722339,0.009817477,0.160352125,-0.55,-0.65,9.43,0,0,0
1476,0.200712864,-0.037088247,0.203985356,-0.79,-0.91,9.96,0,0,0
1477,0.22362031,-0.091629786,0.205076187,-0.75,-0.93,10.24,0,0,0
1478,0.184350402,-0.109083078,0.215984495,-1.2,-1.17,10.26,0,0,0
1479,0.066540678,-0.004363323,0.174532925,-1.47,-1.34,10.12,0,0,0
1480,0.013089969,0.029452431,0.117809725,-1.39,-1.4,9.88,0,0,0
1481,0.018544123,0.081812309,0.085084801,-0.78,-1.3,9.43,0,0,0
1482,0.070904001,0.038179077,0.109083078,-0.45,-1.21,9.48,0,0,0
1483,0.130899694,-0.0141808,0.15380714,-0.63,-1.26,9.7,0,0,0
1484,0.173442094,-0.052359878,0.179987079,-1.19,-1.36,9.97,0,0,0
1485,0.171260433,-0.070904001,0.133081355,-1.52,-1.46,10.35,0,0,0
1486,0.089448124,-0.063268185,0.040360739,-1.37,-1.56,10.39,0,0,0
1487,-0.08399397,0.057814031,-0.05563237,-0.68,-1.4,9.8,0,0,0
1488,-0.103628924,0.107992247,-0.030543262,-0.56,-1.38,9.5,0,0,0
1489,-0.018544123,0.053450708,0.023998277,-0.45,-1.32,9.32,0,0,0
1490,0.030543262,0.004363323,0.031634093,-0.6,-1.33,9.41,0,0,0
1491,0.067631509,-0.043633231,0.034906585,-0.85,-1.34,9.87,0,0,0
1492,-0.002181662,-0.016362462,0.005454154,-1.06,-1.38,9.57,0,0,0
1493,-0.017453293,0.037088247,-0.017453293,-0.94,-1.36,9.39,0,0,0
1494,0.003272492,0.061086524,-0.031634093,-0.63,-1.18,9.71,0,0,0
1495,0.065449847,0.015271631,-0.031634093,-0.49,-1.13,9.88,0,0,0
1496,0.050178216,-0.049087385,-0.018544123,-0.53,-1.07,10.04,0,0,0
1497,-0.034906585,-0.0283616,0.001090831,-1.04,-1.14,9.62,0,0,0
1498,-0.050178216,0.010908308,-0.013089969,-1.18,-1.19,9.46,0,0,0
1499,-0.0283616,0.0141808,-0.040360739,-0.78,-1.02,9.5,0,0,0
1500,0.004363323,0.148352986,0.006544985,-1.05,-1.08,9.39,0,0,0
1501,0.023998277,0.142898833,0.006544985,-1.22,-1.17,9.53,0,0,0
1502,0.050178216,0.066540678,-0.018544123,-0.91,-1.13,10.05,0,0,0
1503,0.018544123,0.044724062,-0.018544123,-0.95,-1.12,10,0,0,0
1504,-0.0141808,0.022907446,-0.013089969,-0.9,-1.1,9.92,0,0,0
1505,-0.037088247,0.110173909,0.033815754,-0.82,-0.93,9.6,0,0,0
1506,-0.020725785,0.110173909,0.046905724,-0.93,-0.95,9.59,0,0,0
1507,-0.005454154,0.130899694,0.047996554,-1.02,-1.13,9.82,0,0,0
1508,0.006544985,0.172351264,0.035997416,-1.24,-1.15,9.99,0,0,0
1509,0.023998277,0.219256987,0.026179939,-1.15,-1.12,10.17,0,0,0
1510,-0.080721478,0.248709418,0.004363323,-0.83,-1.04,9.63,0,0,0
1511,-0.081812309,0.338157543,0.04145157,-0.73,-1,9.3,0,0,0
1512,-0.063268185,0.400334897,0.110173909,-0.66,-0.84,9.37,0,0,0
1513,0.056723201,0.315250096,0.157079633,-1.2,-0.96,9.93,0,0,0
1514,0.075267324,0.315250096,0.164715448,-1.52,-1.09,9.99,0,0,0
1515,0.100356432,0.275980188,0.170169602,-1.21,-1.13,10.16,0,0,0
1516,-0.059995693,0.415606528,0.157079633,-1.22,-1.1,10.19,0,0,0
1517,-0.145080494,0.481056375,0.138535509,-1.3,-1.18,9.49,0,0,0
1518,-0.077448986,0.721039147,0.225801972,-1.28,-1.21,9.49,0,0,0
1519,-0.047996554,0.905389549,0.287979327,-1.46,-1.28,9.64,0,0,0
1520,-0.105810586,1.440987464,0.366519143,-1.62,-1.37,9.78,0,0,0
1521,-0.161442956,1.622065374,0.381790774,-1.73,-1.33,9.44,0,0,0
1522,-0.162533787,1.577341311,0.422151513,-1.65,-1.27,9.35,0,0,0
1523,-0.050178216,1.523890603,0.518144622,-2.74,-1.29,9.25,0,0,0
1524,-0.023998277,1.425715833,0.574867822,-2.62,-1.11,9.29,0,0,0
1525,0.042542401,1.595885435,0.623955208,-2.66,-1.23,9.52,0,0,0
1526,-0.112355571,1.738784267,0.47342056,-3.49,-1.43,8.6,0,0,0
1527,0.015271631,1.683151897,0.415606528,-3.22,-1.62,9.05,0,0,0
1528,0.089448124,1.325359401,0.331612558,-3.42,-1.22,9.94,0,0,0
1529,0.134172186,1.456259095,0.369791635,-3.93,-1.27,10.12,0,0,0
1530,0.001090831,1.275181185,0.273798526,-3.73,-1.33,9.11,0,0,0
1531,-0.022907446,1.688606051,0.229074464,-4.05,-0.81,9.84,0,0,0
1532,-0.199622033,1.782417499,0.234528618,-3.79,-0.86,9.37,0,0,0
1533,-0.256345234,1.928588823,0.29343348,-3.53,-0.82,9.12,0,0,0
1534,-0.299978465,2.25801972,0.237801111,-4.4,-0.77,7.4,0,0,0
1535,-0.201803695,2.273291351,0.305432619,-4.81,-1,7.77,0,0,0
1536,0.207257849,0.902117057,0.285797665,-5.11,-1.06,9.73,0,0,0
1537,0.200712864,0.510508806,0.230165295,-5.24,-1.17,9.98,0,0,0
1538,0.033815754,0.606501915,0.127627202,-5.64,-1.18,8,0,0,0
1539,-0.119991386,0.562868684,0.051269047,-5.51,-1.21,8.19,0,0,0
1540,-0.025089108,0.695950039,0.063268185,-5.38,-1.1,8.53,0,0,0
1541,-0.074176493,0.861756318,0.06981317,-5.15,-1.03,8.69,0,0,0
1542,-0.19525871,1.225002969,0.017453293,-4.87,-0.91,8.91,0,0,0
1543,-0.333794219,1.307906108,0,-4.97,-0.92,8.47,0,0,0
1544,-0.364337481,1.521708942,0.030543262,-5.59,-1.15,8.52,0,0,0
1545,-0.466875575,0.956658596,0,-5.58,-0.99,8.09,0,0,0
1546,-0.427605667,0.803942287,0.026179939,-6.38,-1.14,7.22,0,0,0
1547,-0.27816185,0.259617726,-0.009817477,-6.51,-1.25,7.77,0,0,0
1548,-0.263981049,0.483238037,-0.046905724,-6.62,-1.4,7.74,0,0,0
1549,-0.239982772,0.891208749,-0.100356432,-5.66,-1.32,7.45,0,0,0
1550,-0.18107791,0.902117057,-0.094902278,-5.78,-1.32,7.38,0,0,0
1551,-0.183259571,0.788670656,-0.102538094,-5.33,-1.24,7.3,0,0,0
1552,-0.050178216,0.628318531,0.054541539,-5.7,-1.4,7.51,0,0,0
1553,-0.007635815,0.488692191,0.12544554,-5.96,-1.31,7.42,0,0,0
1554,0.047996554,0.476693052,0.219256987,-6.04,-1.29,7.69,0,0,0
1555,-0.019634954,0.506145483,0.189804556,-7.06,-1.27,8.01,0,0,0
1556,-0.102538094,0.536688745,0.150534648,-7.05,-1.36,7.67,0,0,0
1557,-0.137444679,0.519235452,-0.002181662,-6.54,-1.4,6.93,0,0,0
1558,-0.038179077,0.407970713,0.0141808,-6.58,-1.4,7.28,0,0,0
1559,0.022907446,0.286888496,0.037088247,-6.54,-1.12,7.36,0,0,0
1560,0.013089969,0.368700804,0.114537232,-7.02,-1.32,7.27,0,0,0
1561,0.019634954,0.375245789,0.102538094,-7.27,-1.33,7.29,0,0,0
1562,0.050178216,0.245436926,0.067631509,-6.78,-1.36,7.48,0,0,0
1563,-0.001090831,0.213802833,-0.089448124,-6.92,-1.07,8.13,0,0,0
1564,-0.138535509,0.308705111,-0.113446401,-7.22,-1.22,7.65,0,0,0
1565,-0.150534648,0.490873852,-0.085084801,-7.06,-1.27,7.21,0,0,0
1566,-0.128718032,0.470148067,-0.103628924,-6.94,-1.33,7.65,0,0,0
1567,-0.143989663,0.450513113,-0.11126474,-7.29,-1.23,7.36,0,0,0
1568,-0.088357293,0.452694775,-0.047996554,-7.15,-1.45,7.02,0,0,0
1569,-0.113446401,0.520326283,-0.008726646,-7.47,-1.7,6.92,0,0,0
1570,-0.071994832,0.381790774,-0.039269908,-6.9,-1.55,7.16,0,0,0
1571,-0.035997416,0.271616865,-0.075267324,-6.69,-1.65,7.48,0,0,0
1572,-0.061086524,0.136353848,-0.105810586,-6.94,-1.36,7.18,0,0,0
1573,-0.089448124,0.015271631,-0.076358155,-6.88,-1.6,6.88,0,0,0
1574,-0.063268185,0.070904001,-0.02727077,-7.11,-1.44,6.7,0,0,0
1575,-0.039269908,0.113446401,0.022907446,-7,-1.54,6.92,0,0,0
1576,0.087266463,0.119991386,0.087266463,-7.04,-1.58,6.91,0,0,0
1577,0.076358155,0.008726646,0.071994832,-6.95,-1.49,6.81,0,0,0
1578,0.075267324,-0.058904862,0.06981317,-7.11,-1.48,7.38,0,0,0
1579,0.020725785,-0.095993109,0.049087385,-7.13,-1.38,7.19,0,0,0
1580,0.006544985,-0.071994832,0.052359878,-7.2,-1.49,7.07,0,0,0
1581,-0.019634954,-0.007635815,0.007635815,-7.16,-1.48,6.85,0,0,0
1582,-0.009817477,-0.008726646,-0.006544985,-6.99,-1.43,6.96,0,0,0
1583,-0.009817477,-0.050178216,-0.003272492,-7.17,-1.46,7.17,0,0,0
1584,-0.025089108,-0.086175632,-0.007635815,-7.28,-1.45,7.08,0,0,0
1585,-0.034906585,-0.029452431,-0.004363323,-7.09,-1.44,6.78,0,0,0
1586,-0.022907446,0.073085662,-0.001090831,-6.85,-1.4,6.76,0,0,0
1587,0.005454154,0.065449847,0.021816616,-6.88,-1.53,6.84,0,0,0
1588,0.032724923,-0.009817477,0.025089108,-7.23,-1.47,7.31,0,0,0
1589,0.093811447,-0.286888496,0.065449847,-7.19,-1.31,7.49,0,0,0
1590,0.053450708,-0.119991386,0.093811447,-7.33,-1.46,7.24,0,0,0
1591,0.003272492,0.023998277,0.062177355,-7.29,-1.54,6.56,0,0,0
1592,0.043633231,-0.075267324,-0.009817477,-7.12,-1.55,6.6,0,0,0
1593,0.104719755,-0.199622033,-0.025089108,-7.11,-1.51,6.72,0,0,0
1594,0.182168741,-0.411243205,-0.020725785,-6.84,-1.34,7.28,0,0,0
1595,0.199622033,-0.450513113,0.021816616,-6.94,-1.39,7.51,0,0,0
1596,0.091629786,-0.346884189,0.022907446,-6.72,-1.31,7.69,0,0,0
1597,0.006544985,-0.219256987,-0.010908308,-7.01,-1.09,7.24,0,0,0
1598,-0.019634954,-0.281434342,0.003272492,-6.83,-1.33,7.1,0,0,0
1599,0.015271631,-0.526871268,0.031634093,-7.2,-1.4,7.56,0,0,0
1600,0.04145157,-0.591230284,-0.002181662,-7.53,-1.45,7.39,0,0,0
1601,0.051269047,-0.793033979,-0.059995693,-7.03,-1.27,7.32,0,0,0
1602,0.02727077,-0.761399886,-0.105810586,-6.2,-1.24,7.36,0,0,0
1603,0.046905724,-0.749400748,-0.067631509,-5.95,-1.16,7.71,0,0,0
1604,0.010908308,-0.714494163,-0.013089969,-6.48,-1.46,7.26,0,0,0
1605,0.094902278,-0.882482103,0.0283616,-6.35,-1.37,7.42,0,0,0
1606,0.126536371,-1.012290966,0.0141808,-6.36,-1.43,7.53,0,0,0
1607,0.161442956,-1.11591989,-0.05563237,-6.42,-1.4,8.03,0,0,0
1608,0.118900555,-1.203186353,-0.113446401,-6.32,-1.42,8.09,0,0,0
1609,0.110173909,-1.300270293,-0.177805418,-6.16,-1.31,8.16,0,0,0
1610,0.076358155,-1.257727892,-0.165806279,-5.38,-1.11,7.9,0,0,0
1611,0.089448124,-1.22718463,-0.118900555,-5.41,-1.24,7.67,0,0,0
1612,0.129808863,-1.332995216,-0.122173048,-5.46,-1.24,7.58,0,0,0
1613,0.248709418,-1.550070542,-0.123263878,-5.82,-1.47,8.3,0,0,0
1614,0.314159265,-1.638427835,-0.137444679,-5.61,-1.32,8.83,0,0,0
1615,0.170169602,-1.2544554,-0.117809725,-4.99,-1.45,9.06,0,0,0
1616,0.127627202,-1.135554845,-0.09817477,-4.85,-1.2,9.11,0,0,0
1617,0.076358155,-1.209731338,-0.105810586,-5.14,-1.25,8.64,0,0,0
1618,0.077448986,-1.304633616,-0.091629786,-5.2,-1.27,8.51,0,0,0
1619,0.09817477,-1.434442479,-0.06981317,-4.75,-1.14,8.29,0,0,0
1620,0.211621172,-1.448623279,-0.074176493,-4.39,-1.35,9.14,0,0,0
1621,0.199622033,-1.456259095,-0.171260433,-3.93,-1.14,9.07,0,0,0
1622,0.210530341,-1.47807571,-0.160352125,-3.76,-1.07,9.28,0,0,0
1623,0.215984495,-1.426806664,-0.133081355,-3.47,-1.01,9.45,0,0,0
1624,0.06981317,-1.411535033,-0.037088247,-3.32,-0.91,8.75,0,0,0
1625,0.104719755,-1.322086908,0.021816616,-3.45,-1.1,8.6,0,0,0
1626,0.25089108,-1.503164818,0.031634093,-3.37,-0.99,9.31,0,0,0
1627,0.327249235,-1.47807571,0.063268185,-3.47,-0.9,9.82,0,0,0
1628,0.321795081,-1.654790297,0.006544985,-2.84,-0.87,10.08,0,0,0
1629,0.160352125,-1.870774792,-0.109083078,-2.38,-0.8,9.8,0,0,0
1630,0.026179939,-1.751874237,-0.154897971,-2.25,-0.97,9.25,0,0,0
1631,-0.031634093,-1.733330113,-0.159261294,-2.13,-0.83,9.3,0,0,0
1632,0.313068435,-1.807506607,-0.050178216,-1.75,-0.81,9.8,0,0,0
1633,0.263981049,-1.553343034,-0.032724923,-2.25,-1.02,10.02,0,0,0
1634,0.093811447,-1.487893187,-0.09817477,-2.15,-1,9.77,0,0,0
1635,0.029452431,-1.283907831,-0.175623756,-1.6,-0.95,9.97,0,0,0
1636,-0.004363323,-1.249001246,-0.211621172,-1.36,-0.92,9.84,0,0,0
1637,0.0141808,-1.466076572,-0.283616003,-0.92,-0.79,9.86,0,0,0
1638,0.021816616,-1.359175155,-0.290160988,-0.76,-0.82,9.78,0,0,0
1639,0.02727077,-1.399535894,-0.323976742,-0.68,-0.85,9.47,0,0,0
1640,0.078539816,-1.291543646,-0.198531202,-0.56,-0.82,9.5,0,0,0
1641,0.187622895,-1.266454538,-0.112355571,-0.13,-0.78,9.7,0,0,0
1642,0.212712003,-1.282817,-0.093811447,-0.34,-0.82,9.93,0,0,0
1643,0.079630647,-1.036289243,-0.112355571,-0.6,-1.06,9.55,0,0,0
1644,-0.009817477,-1.153008137,-0.182168741,-0.37,-0.84,9.47,0,0,0
1645,0.032724923,-1.206458845,-0.176714587,0.09,-0.88,9.58,0,0,0
1646,0.206167018,-1.475894049,-0.224711141,0.55,-0.78,10.08,0,0,0
1647,0.167987941,-1.745329252,-0.241073603,0.64,-0.53,10.08,0,0,0
1648,0.220347818,-1.72896679,-0.18107791,0.65,-0.74,10.02,0,0,0
1649,0.057814031,-1.286089493,-0.066540678,0.81,-0.81,9.46,0,0,0
1650,0.022907446,-1.062469182,0,1.19,-0.82,9.78,0,0,0
1651,-0.002181662,-0.820304748,-0.009817477,1.85,-0.46,9.51,0,0,0
1652,-0.045814893,-0.72540247,-0.035997416,1.48,-0.58,9.06,0,0,0
1653,-0.043633231,-0.716675824,-0.123263878,0.95,-0.59,8.66,0,0,0
1654,0.189804556,-1.012290966,-0.254163572,1.86,-0.78,10.35,0,0,0
1655,0.327249235,-1.024290105,-0.241073603,1.91,-0.8,11.06,0,0,0
1656,0.25089108,-0.802851456,-0.160352125,1.94,-0.78,11.27,0,0,0
1657,-0.176714587,-0.237801111,0.034906585,1.89,-0.56,9.61,0,0,0
1658,-0.337066712,-0.283616003,0.0283616,1.97,-0.44,8.88,0,0,0
1659,-0.137444679,-0.751582409,0.044724062,2.2,-0.46,8.8,0,0,0
1660,0.011999139,-0.985020197,0.019634954,1.95,-0.6,9.15,0,0,0
1661,0.122173048,-1.041743397,0.016362462,1.9,-0.6,9.25,0,0,0
1662,0.12544554,-0.753764071,0.005454154,1.62,-0.85,9.35,0,0,0
1663,0.089448124,-0.54432456,-0.006544985,1.95,-0.99,9.48,0,0,0
1664,0.062177355,-0.6130469,-0.058904862,2.27,-0.72,9.68,0,0,0
1665,-0.003272492,-0.665406777,-0.06981317,2.26,-0.59,9.22,0,0,0
1666,-0.045814893,-0.800669794,-0.094902278,2.51,-0.53,8.96,0,0,0
1667,-0.017453293,-1.180278907,-0.151625479,3.03,-0.44,9.1,0,0,0
1668,0.026179939,-0.967566904,-0.074176493,2.63,-0.39,8.43,0,0,0
1669,-0.001090831,-0.85084801,-0.056723201,2.43,-0.62,8.27,0,0,0
1670,0.211621172,-0.796306471,-0.075267324,2.87,-0.63,8.59,0,0,0
1671,0.284706834,-0.942477796,-0.167987941,2.95,-0.76,9.15,0,0,0
1672,0.34797502,-1.051560874,-0.226892803,3.4,-0.49,9.51,0,0,0
1673,0.175623756,-0.805033117,-0.183259571,3.41,-0.71,9.8,0,0,0
1674,0.085084801,-0.662134285,-0.159261294,3.33,-0.63,9.69,0,0,0
1675,-0.056723201,-0.322885912,-0.066540678,3.54,-0.53,9.08,0,0,0
1676,-0.149443817,0.033815754,0.0141808,3.31,-0.28,8.32,0,0,0
1677,-0.138535509,-0.260708557,-0.071994832,3.6,-0.47,8.35,0,0,0
1678,-0.021816616,-0.381790774,-0.089448124,3.45,-0.57,8.64,0,0,0
1679,0.131990525,-0.263981049,-0.061086524,3.61,-0.49,8.88,0,0,0
1680,0.177805418,-0.241073603,-0.052359878,3.76,-0.48,9.15,0,0,0
1681,0.106901417,-0.151625479,0.026179939,3.75,-0.34,9.6,0,0,0
1682,0,-0.32070425,0,3.46,-0.67,9.46,0,0,0
1683,-0.023998277,-0.44614979,-0.035997416,3.19,-0.64,9.44,0,0,0
1684,-0.136353848,-0.802851456,-0.196349541,3.26,-0.62,9.44,0,0,0
1685,-0.178896248,-0.763581548,-0.23671028,3.23,-0.6,9.2,0,0,0
1686,-0.271616865,-0.652316808,-0.259617726,3.95,-0.4,8.69,0,0,0
1687,-0.330521727,-0.650135146,-0.275980188,5.09,-0.12,7.39,0,0,0
1688,-0.196349541,-0.839939703,-0.244346095,4.63,-0.24,7.41,0,0,0
1689,-0.040360739,-0.968657735,-0.177805418,4.05,-0.43,7.67,0,0,0
1690,0.255254403,-0.918479519,-0.124354709,3.27,-0.81,8.46,0,0,0
1691,0.327249235,-0.76685404,-0.138535509,4.1,-0.53,8.32,0,0,0
1692,0.262890219,-0.796306471,-0.257436065,4.66,-0.3,8.47,0,0,0
1693,0.210530341,-0.823577241,-0.261799388,4.53,-0.38,8.54,0,0,0
1694,0.142898833,-0.722129978,-0.245436926,4.48,-0.27,8.22,0,0,0
1695,-0.007635815,-0.6130469,-0.217075326,4.93,-0.24,8.13,0,0,0
1696,0.009817477,-0.532325422,-0.176714587,5.57,0.09,7.44,0,0,0
1697,-0.007635815,-0.389426589,-0.088357293,5.2,0.11,7.28,0,0,0
1698,0.203985356,-0.633772685,-0.032724923,5.52,0.23,6.79,0,0,0
1699,0.346884189,-0.776671517,-0.029452431,5.55,0.44,7.04,0,0,0
1700,0.524689606,-0.882482103,-0.013089969,5.45,0.24,7.61,0,0,0
1701,0.737401609,-1.10064826,-0.049087385,4.48,-0.15,8.87,0,0,0
1702,0.596684438,-0.877027949,-0.06981317,4.67,-0.28,8.8,0,0,0
1703,0.255254403,-0.352338343,-0.064359016,5.43,0.03,8.67,0,0,0
1704,0.165806279,-0.267253542,-0.04145157,5.95,0.15,8.52,0,0,0
1705,0.071994832,-0.272707696,-0.003272492,5.41,0.12,8.02,0,0,0
1706,-0.079630647,-0.110173909,0.061086524,5.2,0.12,7.61,0,0,0
1707,-0.116718894,-0.08399397,0.043633231,4.98,0,7.1,0,0,0
1708,-0.052359878,0.008726646,0.022907446,4.87,0,7.1,0,0,0
1709,0.178896248,-0.106901417,-0.068722339,5.92,0.26,7.31,0,0,0
1710,0.277071019,-0.302160127,-0.089448124,5.79,0.07,7.77,0,0,0
1711,0.355610835,-0.410152374,-0.085084801,5.62,0.03,8.25,0,0,0
1712,0.214893664,-0.123263878,-0.034906585,5.21,-0.05,8.31,0,0,0
1713,0.071994832,0.02727077,-0.033815754,5.33,0.05,8.16,0,0,0
1714,-0.053450708,0.0283616,-0.025089108,5.63,0.14,7.65,0,0,0
1715,-0.019634954,-0.115628063,-0.025089108,5.68,0.3,7.86,0,0,0
1716,0.05563237,-0.135263017,-0.010908308,5.53,0.25,7.79,0,0,0
1717,0.016362462,-0.128718032,-0.003272492,5.51,0.28,7.74,0,0,0
1718,0.004363323,-0.106901417,-0.003272492,5.37,0.11,7.82,0,0,0
1719,-0.004363323,0.008726646,-0.006544985,5.44,0.19,7.73,0,0,0
1720,-0.042542401,0.082903139,-0.007635815,5.71,0.24,7.34,0,0,0
1721,-0.026179939,-0.061086524,-0.033815754,5.57,0.21,7.45,0,0,0
1722,0.043633231,0.018544123,0.003272492,5.43,0.08,7.85,0,0,0
1723,0.054541539,0.061086524,0.004363323,5.6,0.19,7.85,0,0,0
1724,0.040360739,0.128718032,0.016362462,5.73,0.28,7.78,0,0,0
1725,0.006544985,-0.033815754,0.02727077,5.24,0.16,7.82,0,0,0
1726,-0.015271631,0.013089969,0.039269908,5.11,0.18,7.48,0,0,0
1727,-0.077448986,0.06981317,0.023998277,5.4,0.27,7.12,0,0,0
1728,0.051269047,0.089448124,-0.021816616,5.62,0.21,7.88,0,0,0
1729,0.100356432,0.220347818,0.031634093,5.42,0.21,8.23,0,0,0
1730,0.063268185,0.295615142,0.074176493,5.55,0.25,8.02,0,0,0
1731,-0.066540678,0.161442956,0.095993109,5.54,0.2,7.96,0,0,0
1732,-0.088357293,0.172351264,0.129808863,5.36,0.14,7.95,0,0,0
1733,-0.113446401,0.373064128,0.167987941,5.19,0,8.31,0,0,0
1734,-0.08399397,0.533416253,0.175623756,5.22,0.18,8.42,0,0,0
1735,-0.155988802,0.767944871,0.207257849,5.45,0.05,8.29,0,0,0
1736,-0.263981049,1.042834228,0.263981049,5.34,0.1,8.18,0,0,0
1737,-0.289070157,1.300270293,0.34797502,5.19,-0.07,8.15,0,0,0
1738,-0.273798526,1.598067096,0.429787328,4.03,-0.15,7.8,0,0,0
1739,-0.230165295,2.134755841,0.513781299,3.81,-0.4,7.91,0,0,0
1740,-0.099265601,2.069305994,0.445058959,3.73,-0.35,8.04,0,0,0
1741,0.049087385,2.151118303,0.37633662,3.42,-0.04,7.83,0,0,0
1742,0.089448124,1.860957315,0.22362031,3.75,-0.09,7.69,0,0,0
1743,0.124354709,1.504255649,0.149443817,3.94,-0.06,8.06,0,0,0
1744,0.27925268,1.286089493,0.141808002,3.18,-0.63,9.51,0,0,0
1745,0.245436926,1.607884573,0.142898833,3.16,-0.62,9.65,0,0,0
1746,-0.030543262,3.433935303,0.247618588,2.51,0.06,10.21,0,0,0
1747,-0.235619449,4.01534811,0.277071019,2.55,0.09,10.16,0,0,0
1748,-0.308705111,4.130976173,0.331612558,1.87,-0.28,9.31,0,0,0
1749,-0.399244066,3.42957198,0.311977604,2.43,-0.25,8.57,0,0,0
1750,-0.268344372,1.261000385,0.164715448,2.01,-0.26,8.84,0,0,0
1751,-0.085084801,0.82248641,0.091629786,1.27,-0.26,9.25,0,0,0
1752,0.071994832,0.162533787,0.103628924,1.16,-0.33,10.38,0,0,0
1753,0.020725785,0.226892803,0.150534648,0.69,-0.57,10.09,0,0,0
1754,-0.087266463,0.375245789,0.13962634,1.34,-0.49,10.08,0,0,0
1755,-0.241073603,0.911934534,0.191986218,1.22,-0.46,10,0,0,0
1756,-0.302160127,1.065741674,0.15271631,1.18,-0.49,10.12,0,0,0
1757,-0.513781299,1.511891465,0.101447263,0.94,-0.3,9.4,0,0,0
1758,-0.518144622,1.44971411,0.089448124,0.92,-0.37,9.17,0,0,0
1759,-0.427605667,1.252273738,0.076358155,0.91,-0.52,9.14,0,0,0
1760,-0.22362031,0.554142038,0.050178216,0.73,-0.65,9.35,0,0,0
1761,-0.061086524,0.217075326,0.070904001,0.44,-0.71,9.87,0,0,0
1762,-0.021816616,0.280343511,0.085084801,0.02,-0.78,9.92,0,0,0
1763,-0.109083078,0.475602221,0.049087385,0.34,-0.68,9.94,0,0,0
1764,-0.206167018,0.726493301,0.094902278,0.48,-0.76,10.28,0,0,0
1765,-0.369791635,1.49225651,0.062177355,0.66,-0.33,10.39,0,0,0
1766,-0.521417114,2.06276101,-0.02727077,-0.23,-0.59,9.79,0,0,0
1767,-0.521417114,2.06276101,-0.02727077,-1.47,-1.37,8.82,0,0,0
1768,-0.325067573,0.443968128,-0.214893664,-0.3,-0.85,8.68,0,0,0
1769,-0.225801972,0.314159265,-0.247618588,-0.47,-1.05,8.75,0,0,0
1770,0.115628063,0.113446401,-0.126536371,-0.45,-0.87,9.65,0,0,0
1771,0.138535509,0.029452431,-0.038179077,-0.62,-0.96,10.16,0,0,0
1772,0.077448986,0.211621172,0.004363323,-1,-1.08,9.86,0,0,0
1773,-0.021816616,0.373064128,0.009817477,-0.81,-1.12,9.45,0,0,0
1774,-0.021816616,0.573776992,-0.007635815,-0.86,-1.07,9.72,0,0,0
1775,0.045814893,0.524689606,-0.001090831,-0.92,-0.88,10.38,0,0,0
1776,-0.063268185,0.46033059,-0.09817477,-1.13,-1.08,9.97,0,0,0
1777,-0.071994832,0.352338343,-0.136353848,-1.12,-1.13,9.59,0,0,0
1778,-0.071994832,0.352338343,-0.136353848,-0.57,-1,9.14,0,0,0
1779,0.174532925,-0.142898833,-0.005454154,-0.7,-1,9.48,0,0,0
1780,0.179987079,-0.037088247,0.010908308,-1.16,-1.01,10.1,0,0,0
1781,0.145080494,0.002181662,-0.004363323,-1.17,-0.94,10.19,0,0,0
1782,0.029452431,0.049087385,-0.034906585,-0.92,-0.84,10.04,0,0,0
1783,0.002181662,0.044724062,-0.068722339,-1.02,-0.83,9.41,0,0,0
1784,0.118900555,-0.066540678,-0.039269908,-0.73,-0.88,10,0,0,0
1785,0.103628924,-0.208348679,-0.045814893,-0.59,-0.68,10.3,0,0,0
1786,0.026179939,-0.146171325,-0.05563237,-0.93,-0.92,10.13,0,0,0
1787,-0.103628924,0.061086524,-0.076358155,-0.92,-0.93,9.8,0,0,0
1788,-0.090538955,-0.005454154,-0.05563237,-0.64,-0.81,9.32,0,0,0
1789,-0.011999139,-0.04145157,-0.044724062,-1.19,-0.93,9.47,0,0,0
1790,0.078539816,-0.149443817,-0.032724923,-0.92,-0.91,9.77,0,0,0
1791,0.053450708,-0.095993109,-0.035997416,-0.81,-0.9,9.99,0,0,0
1792,0.017453293,-0.056723201,-0.033815754,-0.9,-0.97,9.73,0,0,0
1793,0.010908308,-0.031634093,-0.026179939,-0.56,-0.83,9.69,0,0,0
1794,0.018544123,0.094902278,-0.007635815,-0.73,-0.89,9.4,0,0,0
1795,0.073085662,-0.044724062,-0.005454154,-0.58,-0.86,9.59,0,0,0
1796,0.086175632,-0.042542401,-0.003272492,-0.78,-0.92,9.71,0,0,0
1797,0.082903139,-0.177805418,-0.008726646,-0.79,-0.83,10.03,0,0,0
1798,0.04145157,-0.149443817,-0.0141808,-0.91,-0.84,10.06,0,0,0
1799,-0.013089969,-0.043633231,-0.022907446,-0.83,-0.85,9.91,0,0,0
1800,-0.054541539,0.023998277,-0.007635815,-0.6,-0.8,9.59,0,0,0
1801,-0.029452431,-0.009817477,0.0141808,-0.65,-0.85,9.43,0,0,0
1802,-0.001090831,-0.002181662,0.022907446,-0.76,-0.93,9.48,0,0,0
1803,0.051269047,-0.106901417,-0.020725785,-1.19,-0.97,9.71,0,0,0
1804,0.040360739,-0.174532925,-0.05563237,-0.77,-0.91,9.9,0,0,0
1805,0.005454154,-0.059995693,-0.037088247,-0.66,-0.86,9.78,0,0,0
1806,0.021816616,-0.11126474,-0.020725785,-0.75,-0.93,9.71,0,0,0
1807,0.002181662,-0.105810586,-0.025089108,-0.79,-0.86,9.61,0,0,0
1808,0.022907446,-0.016362462,-0.022907446,-0.82,-0.87,9.65,0,0,0
1809,0.033815754,-0.040360739,-0.017453293,-0.76,-0.84,9.61,0,0,0
1810,0.065449847,-0.16689711,-0.008726646,-0.83,-0.85,9.42,0,0,0
1811,0.08399397,-0.179987079,0.017453293,-0.45,-0.84,9.85,0,0,0
1812,0.053450708,-0.062177355,0.020725785,-0.59,-0.91,10.07,0,0,0
1813,-0.006544985,-0.021816616,-0.001090831,-0.6,-0.94,9.95,0,0,0
1814,-0.021816616,0.022907446,-0.017453293,-0.79,-1,9.83,0,0,0
1815,-0.0141808,0.038179077,-0.018544123,-0.5,-0.93,9.78,0,0,0
1816,-0.002181662,-0.015271631,0.003272492,-0.5,-0.92,9.58,0,0,0
1817,0.031634093,-0.056723201,0.019634954,-0.52,-1.01,9.75,0,0,0
1818,0.043633231,-0.011999139,0.020725785,-0.57,-1.07,9.98,0,0,0
1819,0.002181662,0.049087385,-0.003272492,-0.69,-1.11,10.03,0,0,0
1820,-0.032724923,0.088357293,-0.017453293,-0.85,-1.15,9.93,0,0,0
1821,-0.063268185,0.113446401,-0.037088247,-1.01,-1.26,9.59,0,0,0
1822,-0.018544123,0.023998277,-0.086175632,-0.87,-1.29,9.67,0,0,0
1823,0.0141808,0.007635815,-0.093811447,-0.73,-1.26,9.87,0,0,0
1824,-0.008726646,0.015271631,-0.09817477,-0.58,-1.09,9.92,0,0,0
1825,-0.0141808,0.007635815,-0.090538955,-0.34,-0.89,9.88,0,0,0
1826,0.005454154,-0.034906585,-0.019634954,-0.38,-0.74,10.14,0,0,0
1827,-0.026179939,-0.030543262,-0.013089969,-1.13,-0.89,10.42,0,0,0
1828,-0.059995693,-0.008726646,-0.026179939,-0.99,-0.85,10.54,0,0,0
1829,-0.199622033,0.065449847,-0.062177355,-0.64,-0.77,10.16,0,0,0
1830,-0.230165295,0.089448124,-0.062177355,-0.41,-0.71,9.66,0,0,0
1831,-0.225801972,0.091629786,-0.05563237,-0.23,-0.67,9.38,0,0,0
1832,-0.143989663,-0.042542401,-0.040360739,-0.56,-0.78,9.31,0,0,0
1833,-0.103628924,-0.095993109,-0.021816616,-0.55,-0.87,9.32,0,0,0
1834,-0.082903139,-0.068722339,-0.0141808,-0.47,-0.98,9.4,0,0,0
1835,-0.053450708,-0.071994832,-0.004363323,-0.58,-0.96,9.37,0,0,0
1836,-0.019634954,-0.095993109,-0.001090831,-0.78,-0.85,9.63,0,0,0
1837,-0.030543262,-0.074176493,-0.001090831,-0.96,-0.96,9.71,0,0,0
1838,-0.05563237,-0.035997416,-0.025089108,-0.97,-0.94,9.65,0,0,0
1839,-0.074176493,-0.010908308,-0.049087385,-0.74,-0.94,9.63,0,0,0
1840,-0.063268185,0.040360739,-0.058904862,-0.71,-0.8,9.36,0,0,0
1841,-0.038179077,0.021816616,-0.064359016,-0.88,-0.89,9.25,0,0,0
1842,0.016362462,-0.05563237,-0.076358155,-0.4,-0.66,9.54,0,0,0
1843,0.071994832,-0.040360739,-0.023998277,-0.4,-0.58,9.76,0,0,0
1844,0.06981317,-0.022907446,0.0141808,-0.55,-0.57,9.87,0,0,0
1845,0.039269908,-0.058904862,0.032724923,-0.81,-0.6,10.1,0,0,0
1846,0.007635815,-0.042542401,0.018544123,-0.73,-0.55,10,0,0,0
1847,-0.013089969,-0.018544123,0.009817477,-0.83,-0.59,9.87,0,0,0
1848,-0.030543262,-0.086175632,-0.035997416,-0.49,-0.56,9.66,0,0,0
1849,-0.002181662,-0.09708394,-0.038179077,-0.46,-0.59,9.61,0,0,0
1850,0.026179939,-0.150534648,-0.023998277,-0.47,-0.59,9.65,0,0,0
1851,0.073085662,-0.123263878,0.007635815,-0.59,-0.7,9.87,0,0,0
1852,0.06981317,-0.147262156,-0.009817477,-0.51,-0.68,10.01,0,0,0
1853,0.050178216,-0.163624617,-0.011999139,-0.62,-0.81,9.83,0,0,0
1854,0.075267324,-0.158170463,-0.013089969,-0.36,-0.66,10.02,0,0,0
1855,0.039269908,-0.082903139,0.008726646,-0.02,-0.71,9.81,0,0,0
