Packet number,Gyroscope X (deg/s),Gyroscope Y (deg/s),Gyroscope Z (deg/s),Accelerometer X (g),Accelerometer Y (g),Accelerometer Z (g),Magnetometer X (G),Magnetometer Y (G),Magnetometer Z (G)
1,-2.4375,-119.5,232.375,0.85,-0.4,7.39,0,0,0
2,-10.75,-79.4375,219.9375,0.93,-0.8,6.74,0,0,0
3,-9.1875,-50.0625,209.625,0.9,-0.89,6.47,0,0,0
4,-10.75,-41.375,208,1.48,-0.89,6.6,0,0,0
5,-13.625,-20.875,204.3125,1.72,-1.61,6.62,0,0,0
6,-16.125,-8.25,199.1875,1.74,-1.92,6.64,0,0,0
7,-23.75,22.5625,179.375,0.75,-2.11,6.39,0,0,0
8,-37.75,49.0625,148.375,0.67,-2.33,6.27,0,0,0
9,-43.6875,62.25,131.8125,0.68,-2.73,6.09,0,0,0
10,-40.8125,96.375,105.4375,1.1,-3.93,5.9,0,0,0
11,-31.3125,120.25,95.125,1.31,-4.36,6.22,0,0,0
12,4,170.9375,70.5625,-0.63,-5.64,6.73,0,0,0
13,45,193.0625,30.6875,-2.05,-5.87,7.95,0,0,0
14,55,192.75,6.6875,-2.48,-5.29,9.68,0,0,0
15,43.4375,186.5625,-41.375,-2.5,-5.01,11.1,0,0,0
16,11.9375,185.0625,-84,-3.23,-5.15,11.35,0,0,0
17,3.0625,181.1875,-104,-3.44,-5.15,11.03,0,0,0
18,12.75,163.1875,-136.9375,-3.71,-4.23,10.37,0,0,0
19,50.9375,135.6875,-155.375,-3.91,-4.14,10.28,0,0,0
20,78.6875,119.3125,-160.8125,-3.9,-3.96,10.25,0,0,0
21,139.9375,88.75,-173.625,-4.55,-2.72,10.74,0,0,0
22,166.75,56.125,-185.75,-5.84,-0.56,12.27,0,0,0
23,157.6875,38.6875,-194.4375,-5.63,-0.1,12.53,0,0,0
24,111.3125,10.8125,-207.6875,-5.33,1.08,12.48,0,0,0
25,59.375,-4.4375,-206.4375,-4.42,1.47,11.54,0,0,0
26,40.5,-12.75,-200.75,-4.43,1.12,11.15,0,0,0
27,33,-41.75,-181.375,-4.87,-0.18,9.33,0,0,0
28,62.5,-75.6875,-172.9375,-4.86,1.13,9.26,0,0,0
29,71.25,-89,-168.1875,-4.33,2.25,9.54,0,0,0
30,74.5625,-93.625,-147.5625,-3.59,3.42,9.64,0,0,0
31,68.875,-99.1875,-111.25,-2.92,4.13,9.74,0,0,0
32,61.5,-107.0625,-87.875,-2.81,4.45,9.55,0,0,0
33,40.875,-128.4375,-38.875,-2.01,4.91,8.99,0,0,0
34,16.5,-137.9375,13.1875,-1.42,4.89,8.98,0,0,0
35,6.75,-134.75,40.3125,-0.87,4.55,8.42,0,0,0
36,0.1875,-125.625,89.375,-1.03,3.54,7.33,0,0,0
37,-1.125,-112.1875,126.75,-1.01,3.26,7.28,0,0,0
38,-2.0625,-102.875,141.875,-0.22,2.28,7.14,0,0,0
39,4.25,-75.3125,169.5625,0.27,1.41,6.71,0,0,0
40,10.1875,-59.5,180.875,-0.11,0.25,6.67,0,0,0
41,23.5,-30.6875,188.3125,-0.51,-0.79,6.68,0,0,0
42,33.6875,-11.6875,171.75,-0.67,-1.08,7.03,0,0,0
43,37.375,-3.875,156.75,-0.78,-0.79,7.09,0,0,0
44,27.375,4.6875,130.0625,0.18,0.51,8.03,0,0,0
45,7.875,7.875,123.75,1.19,0.36,8.61,0,0,0
46,-42.875,44.3125,122.4375,1.64,-1.15,8.39,0,0,0
47,-57.3125,68.75,116.3125,0.22,-2.69,7.38,0,0,0
48,-58.25,94.5625,84.0625,-1.12,-3.41,7.13,0,0,0
49,-38.9375,94.75,42.625,-1.25,-2.47,7.73,0,0,0
50,-30.0625,89.5,28.4375,-1,-2.09,8.19,0,0,0
51,-23.3125,86.875,17.5,0.63,-2.84,9.54,0,0,0
52,-16.6875,95.25,16.3125,0.21,-3.23,9.4,0,0,0
53,20.0625,104.9375,3,-1.56,-3.39,9.66,0,0,0
54,50.4375,82.5,-18.8125,-2.4,-2.38,10.76,0,0,0
55,48.625,66.5,-27.1875,-2.28,-1.07,11.76,0,0,0
56,14.75,33.5,-37,-2,-0.02,11.42,0,0,0
57,-4.625,15.5,-38.375,-2.21,0.16,10.97,0,0,0
58,-26.9375,-12.5625,-36.125,-1.38,0.47,10.08,0,0,0
59,-32.625,-14.4375,-23.75,-1.03,0.24,9.61,0,0,0
60,-31.5625,-8.4375,-14.9375,-1.1,0.02,8.95,0,0,0
61,-19.6875,6.5625,-0.25,-1.41,-0.29,8.83,0,0,0
62,0.5625,15.875,5.875,-1.81,-0.47,9.22,0,0,0
63,7.375,16.875,6.5,-1.75,-0.35,9.51,0,0,0
64,4.6875,13.875,6.3125,-1.49,-0.49,9.9,0,0,0
65,1.625,14.4375,4.375,-1.65,-0.91,9.99,0,0,0
66,4.1875,15.125,1.0625,-1.87,-1.16,10.16,0,0,0
67,11.9375,12.6875,-8.25,-2.64,-0.98,10.44,0,0,0
68,13.25,6.25,-14.125,-2.67,-0.85,10.45,0,0,0
69,10.125,-6.75,-26.125,-2.41,-0.61,10.33,0,0,0
70,4.25,-10.4375,-33.9375,-1.61,-0.77,9.92,0,0,0
71,6.5,-7.25,-35.1875,-1.6,-1.34,9.39,0,0,0
72,24.6875,5.6875,-39.8125,-2.1,-1.32,9.39,0,0,0
73,31.625,7.6875,-44.625,-2.35,-1.22,9.66,0,0,0
74,26.75,6.8125,-58.375,-2.6,-0.45,10.4,0,0,0
75,14.0625,5.0625,-65.5,-2.58,-0.38,10.49,0,0,0
76,-10.0625,3.5,-75,-2.01,-0.98,8.98,0,0,0
77,14.875,4.8125,-77.3125,-2.1,-1.03,7.7,0,0,0
78,45.6875,8.375,-76.5625,-1.88,-0.26,8,0,0,0
79,103,19.375,-66.125,-1.63,1.06,8.23,0,0,0
80,123.3125,22.9375,-56.8125,-1.51,1.37,8.24,0,0,0
81,152.3125,27,-31.125,-1.36,1.68,7.8,0,0,0
82,174.4375,30.8125,-7.875,-1.85,1.68,8.24,0,0,0
83,174.9375,19.6875,0.875,-3.03,2.5,9.15,0,0,0
84,162.25,4.6875,3,-3.05,3.15,9.88,0,0,0
85,144.8125,-6.75,3.0625,-2.76,3.26,10,0,0,0
86,105.875,-22.75,-0.3125,-2.31,3.17,9.57,0,0,0
87,80.9375,-30.4375,-2,-2.2,3.23,8.85,0,0,0
88,70.875,-31.4375,-2.125,-2.13,3.48,8.8,0,0,0
89,46.75,-28.5625,-0.9375,-1.78,3.87,8.85,0,0,0
90,10.8125,-25.6875,5.8125,-1.36,3.72,9.15,0,0,0
91,-8.6875,-23.25,8.875,-1.37,3.57,8.92,0,0,0
92,-30.125,-17.8125,7.4375,-1.88,2.97,8.23,0,0,0
93,-32.25,-18.75,3.1875,-1.69,3.55,8.7,0,0,0
94,-34,-21.5625,4.625,-1.49,3.85,9.09,0,0,0
95,-57.625,-31.125,16.125,-1.28,4.22,9.81,0,0,0
96,-106,-38.5625,26.9375,-1.43,3.84,9.98,0,0,0
97,-129.25,-37.6875,28.3125,-1.58,3.22,9.52,0,0,0
98,-164.25,-32.875,26.0625,-1.38,2.88,8.92,0,0,0
99,-171.25,-30.375,25.625,-1.23,2.43,8.68,0,0,0
100,-162.3125,-31.6875,32.8125,-1.6,1.5,8.03,0,0,0
101,-152.0625,-41.875,39.125,-1.72,1.12,7.72,0,0,0
102,-118.8125,-58.375,51.6875,-0.8,0.66,7.79,0,0,0
103,-98.4375,-58,58.875,0.11,0.22,7.98,0,0,0
104,-57.0625,-40.6875,71.875,0.21,-0.02,8.48,0,0,0
105,-39.1875,-32.5625,78.875,-1.13,-0.25,9.66,0,0,0
106,-44,-35.25,76.625,-1.55,-0.41,9.94,0,0,0
107,-77.3125,-49.4375,59.75,-1.03,-0.58,9.88,0,0,0
108,-98.75,-55.125,50.375,-0.37,-0.85,9.65,0,0,0
109,-121.6875,-46.3125,41.125,0.72,-2.16,7.67,0,0,0
110,-94.5,-22.875,35.0625,0.82,-2.4,7.42,0,0,0
111,-75.1875,-14.75,33,0.48,-2.23,8.25,0,0,0
112,-57.8125,-15,28.6875,-0.21,-1.89,9.09,0,0,0
113,-59.375,-21.875,23.25,-0.28,-1.75,9.11,0,0,0
114,-62.3125,-23.6875,21.0625,0.31,-1.79,8.5,0,0,0
115,-60.8125,-15.5,23.5625,0.78,-2.49,7.82,0,0,0
116,-49.8125,-3.125,25.0625,0.6,-2.76,7.48,0,0,0
117,-16.375,17.125,27.1875,0.4,-2.58,8.01,0,0,0
118,3.875,22.5,31.0625,-0.07,-1.88,8.76,0,0,0
119,5.3125,21.4375,33,-0.17,-1.81,8.9,0,0,0
120,-5.9375,17.625,36.3125,-0.23,-1.57,9.2,0,0,0
121,-33.75,15.4375,39.0625,-0.22,-1.62,9.1,0,0,0
122,-47.8125,15,41.0625,-0.17,-1.82,8.77,0,0,0
123,-50.0625,25.9375,48.0625,0.35,-3.4,7.49,0,0,0
124,-7.25,45.375,53.3125,0.21,-3.7,7.18,0,0,0
125,16.1875,52.875,51.6875,-0.75,-3.38,8.54,0,0,0
126,20.625,54.0625,43.5,-0.84,-2.93,9.8,0,0,0
127,-14.1875,53.4375,33,-0.96,-2.85,10.22,0,0,0
128,-29.6875,49.375,29.75,-0.49,-3.37,9.31,0,0,0
129,-27.4375,53.875,27.375,-0.71,-4.24,8.21,0,0,0
130,-12.1875,58.3125,26.375,-0.96,-4.43,8.01,0,0,0
131,31.5,65.9375,19.4375,-1.65,-4.24,8.67,0,0,0
132,61.1875,65.5625,6.6875,-1.6,-3.62,9.37,0,0,0
133,64.5,64.1875,0.625,-1.57,-3.26,9.73,0,0,0
134,49.3125,59.1875,-8.125,-1.85,-2.71,10.36,0,0,0
135,36.625,56.1875,-12.375,-2.03,-2.78,10.31,0,0,0
136,17.4375,45.375,-22.5,-2.48,-2.82,10.05,0,0,0
137,12.3125,37.625,-28.1875,-2.55,-2.82,10,0,0,0
138,13,28.3125,-36.0625,-2.46,-2.59,9.59,0,0,0
139,24.4375,23.375,-39.0625,-2.38,-2.45,9.4,0,0,0
140,31.75,22.5,-40.125,-2.26,-2.31,9.4,0,0,0
141,42.4375,18.625,-40.3125,-2.4,-2.23,9.26,0,0,0
142,48.1875,17.3125,-40.625,-2.54,-2.34,9.19,0,0,0
143,56.9375,14.75,-46.0625,-2.54,-2.19,9.72,0,0,0
144,51.625,14.1875,-53.375,-2.65,-2,9.93,0,0,0
145,45.1875,11.5,-56.8125,-2.79,-1.85,9.85,0,0,0
146,39.25,2.8125,-61.4375,-2.81,-1.78,9.46,0,0,0
147,41.0625,-0.625,-64.1875,-2.82,-1.68,9.12,0,0,0
148,49.1875,-2.0625,-68.6875,-2.68,-1.74,9.01,0,0,0
149,59.4375,3.75,-74.625,-3.14,-1.75,8.99,0,0,0
150,64.3125,3.625,-78.4375,-3.02,-1.47,9.08,0,0,0
151,72.1875,-2,-83.4375,-2.71,-1.11,9.15,0,0,0
152,75.4375,-9.25,-80.8125,-2.55,-1.33,9.02,0,0,0
153,79.1875,-6.5,-79.8125,-2.56,-1.28,9,0,0,0
154,82.75,-1.8125,-84,-2.85,-0.77,9.16,0,0,0
155,87.0625,-4.25,-91.6875,-3.28,-0.57,9.22,0,0,0
156,87.875,-7.375,-93.8125,-3.19,0.5,9.34,0,0,0
157,86,-21.5,-87.875,-2.45,0.95,9.23,0,0,0
158,85.0625,-27.75,-79.3125,-2.51,1.11,9.5,0,0,0
159,75.625,-36,-65.125,-2.76,1.13,10.02,0,0,0
160,53.75,-41.0625,-61.8125,-2.96,1.8,9.91,0,0,0
161,46.75,-46,-61.5625,-2.65,1.79,9.41,0,0,0
162,56.3125,-58.125,-50.6875,-2.29,2.06,8.86,0,0,0
163,64.9375,-65,-39.75,-1.6,2.71,8.94,0,0,0
164,68.0625,-70.6875,-12.75,-1.04,3.1,9.28,0,0,0
165,58.625,-69.25,0.4375,-1.07,3.37,9.66,0,0,0
166,23.875,-55.0625,20.875,-1.49,3.62,9.85,0,0,0
167,-15.125,-46.4375,35.375,-1.6,3.36,9.75,0,0,0
168,-31.5,-47.875,43.375,-1.53,3.05,9.63,0,0,0
169,-57.3125,-60.9375,60.375,-1.17,1.7,8.75,0,0,0
170,-62.5,-67.3125,65.5625,-1.03,1.23,8.42,0,0,0
171,-51.1875,-66.8125,68.0625,-0.69,0.7,8.05,0,0,0
172,-30,-51.0625,67.1875,-0.21,0.74,8.38,0,0,0
173,-22.4375,-43.1875,67.9375,-0.14,0.76,8.7,0,0,0
174,-17.9375,-34.625,72.125,-0.27,0.69,9.57,0,0,0
175,-23.5,-36.4375,73.0625,-0.37,0.59,9.54,0,0,0
176,-40.625,-42.125,69.375,-0.15,0.16,9.45,0,0,0
177,-57.25,-40.375,59.6875,0.36,0.33,9.36,0,0,0
178,-62.25,-34.75,56.6875,0.42,0.71,9.48,0,0,0
179,-64,-35.1875,62.75,0.73,0.78,8.22,0,0,0
180,-32.4375,-40.0625,83.8125,1.22,-0.29,7.95,0,0,0
181,-10.125,-37.3125,94.5625,1.03,-0.46,8.11,0,0,0
182,14,-23.6875,101.625,0.36,-0.75,8.78,0,0,0
183,0.5,-14.5,87.5,0.11,-0.47,10,0,0,0
184,-17.5625,-13.5625,77.5,0.09,-0.21,10.18,0,0,0
185,-63.5,-22.0625,64.625,1.14,-0.51,9.29,0,0,0
186,-77.8125,-18.625,64.125,1.63,-1.71,7.61,0,0,0
187,-60.9375,-10.625,65.5,1.56,-2.34,6.59,0,0,0
188,-2.8125,5.0625,66.8125,1.32,-1.65,7.23,0,0,0
189,20.25,14.4375,69.8125,1.24,-1.04,7.9,0,0,0
190,11.3125,16.0625,71.8125,0.75,-0.53,8.82,0,0,0
191,-19.6875,24.375,73.625,1.09,-2.05,8.52,0,0,0
192,-27.25,35.1875,72.1875,0.76,-2.63,8.29,0,0,0
193,-14.625,47.6875,58.3125,-0.06,-3.13,7.84,0,0,0
194,20.1875,46,39.875,0.23,-2.43,8.26,0,0,0
195,33.6875,44.4375,34.3125,0.34,-1.92,8.73,0,0,0
196,29.75,41.4375,29.125,0.1,-0.45,9.51,0,0,0
197,15.1875,39.5625,28.0625,0.15,-0.27,9.58,0,0,0
198,-14.5625,42.25,36.3125,0.35,-1.23,9,0,0,0
199,-16.8125,48.1875,41.625,-0.11,-1.62,8.75,0,0,0
200,-0.1875,46.875,42.8125,-1.02,-1.96,8.99,0,0,0
201,13.5,34.125,35.5625,-1.07,-1.45,9.69,0,0,0
202,12.125,28.375,32,-1.08,-1.13,9.93,0,0,0
203,-7.5,18.75,28.5625,-0.32,-0.72,9.55,0,0,0
204,-15.0625,19.3125,30.6875,0.06,-1.06,9.4,0,0,0
205,-4.5625,31.0625,40.1875,-0.79,-2.48,8.61,0,0,0
206,28.6875,34.5625,38,-1.21,-2.72,8.71,0,0,0
207,40,32.375,30.625,-1.28,-2.35,10.06,0,0,0
208,36.125,28.375,12.5,-1.17,-1.78,10.87,0,0,0
209,21.6875,25.375,4.8125,-1.3,-1.47,11.07,0,0,0
210,-15,14,-5.9375,-1.25,-1.15,10.42,0,0,0
211,-37.25,3.375,-8.75,-0.89,-1.21,9.54,0,0,0
212,-38.75,1.625,-6.5625,-0.46,-1.63,8.92,0,0,0
213,-21.6875,9.8125,-0.1875,-0.47,-2.13,8.42,0,0,0
214,11.75,19.3125,2.375,-0.94,-2.08,9.19,0,0,0
215,24,18.3125,1.875,-0.95,-1.82,9.59,0,0,0
216,27.875,12,1.1875,-0.84,-1.27,10.31,0,0,0
217,8.875,4.25,1.1875,-0.81,-1.31,10.36,0,0,0
218,-3.0625,1.6875,-0.5,-0.87,-1.85,9.9,0,0,0
219,-18.3125,-0.0625,-9.5,-0.8,-2.05,9.52,0,0,0
220,-17.8125,1.5625,-15.75,-0.83,-2.12,9.4,0,0,0
221,-4.9375,3.9375,-25.3125,-0.87,-1.77,9.37,0,0,0
222,7.125,2.8125,-30.625,-0.87,-1.34,9.45,0,0,0
223,8.8125,0.8125,-31.3125,-0.69,-1.08,9.41,0,0,0
224,8.0625,2.625,-30.3125,-0.43,-0.78,9.42,0,0,0
225,6.375,5.4375,-28.3125,-0.57,-0.72,9.53,0,0,0
226,2.3125,8.3125,-25.8125,-0.87,-0.68,9.76,0,0,0
227,0.375,7.6875,-26.25,-0.9,-0.67,9.86,0,0,0
228,-1.625,2.5,-27.5,-0.86,-0.69,9.73,0,0,0
229,0.5,-2.1875,-29.3125,-0.67,-0.75,9.7,0,0,0
230,3.875,-2.625,-30,-0.56,-0.67,9.52,0,0,0
231,8.6875,-3,-29.9375,-0.44,-0.48,9.5,0,0,0
232,9.6875,-3.875,-28.5,-0.52,-0.42,9.49,0,0,0
233,11.1875,-3.875,-26.25,-0.67,-0.36,9.5,0,0,0
234,7.75,-3,-25.625,-0.65,-0.27,9.5,0,0,0
235,2.75,-3.25,-24.625,-0.61,-0.24,9.53,0,0,0
236,-5.8125,-2.375,-23.1875,-0.76,-0.5,9.32,0,0,0
237,-6.625,-1.0625,-22.875,-0.7,-0.56,9.22,0,0,0
238,0.875,1.5625,-20.75,-0.71,-0.63,9.08,0,0,0
239,7.0625,1.875,-19.375,-0.83,-0.63,9.37,0,0,0
240,11.9375,1.1875,-17.75,-1.08,-0.38,9.61,0,0,0
241,6.0625,-5.3125,-18.5,-1.02,-0.17,9.54,0,0,0
242,3.0625,-7.25,-17.9375,-0.98,-0.11,9.51,0,0,0
243,-0.9375,-6.4375,-14.625,-0.97,-0.02,9.44,0,0,0
244,-0.875,-4.6875,-12.5,-0.92,-0.1,9.17,0,0,0
245,3.5,0.6875,-7.25,-1.06,-0.16,9.24,0,0,0
246,5.6875,1.875,-5,-1.24,-0.25,9.32,0,0,0
247,9.75,3.6875,-2.125,-1.41,-0.09,9.54,0,0,0
248,3.9375,0.25,1,-1.47,0.07,9.81,0,0,0
249,-1.0625,-2.1875,3,-1.56,0,9.83,0,0,0
250,-9,-6.1875,6.6875,-1.61,-0.06,9.75,0,0,0
251,-10.6875,-7.9375,8.25,-1.73,-0.34,9.43,0,0,0
252,-9.5,-11.3125,11.25,-1.59,-0.66,9.13,0,0,0
253,-7.0625,-11.9375,13,-1.56,-0.75,9.1,0,0,0
254,-1.5,-10.375,15.5,-1.62,-0.79,9.32,0,0,0
255,-5.4375,-10.5,15.6875,-1.74,-0.73,9.53,0,0,0
256,-9.375,-11.3125,15.875,-1.68,-0.7,9.39,0,0,0
257,-14.5,-13.25,18.8125,-1.43,-0.96,9.02,0,0,0
258,-8.8125,-10,23.8125,-1.49,-1.14,8.69,0,0,0
259,-2.8125,-7.125,25.1875,-1.6,-1.15,8.87,0,0,0
260,3.75,-3.8125,26.375,-1.84,-0.84,9.31,0,0,0
261,-6.4375,-7.6875,26.8125,-1.77,-0.66,9.48,0,0,0
262,-14.75,-9.625,28.9375,-1.38,-0.9,9.37,0,0,0
263,-21,-7.375,33.5,-1.28,-1.72,8.68,0,0,0
264,-16.25,-4.5625,34.8125,-1.29,-1.83,8.61,0,0,0
265,0.9375,2.5,35.6875,-1.38,-1.9,8.76,0,0,0
266,16.125,6.4375,35.3125,-1.58,-1.56,9.54,0,0,0
267,17.125,4.8125,34.75,-1.69,-1.4,9.81,0,0,0
268,3.1875,-1.75,33.125,-1.44,-1.55,9.92,0,0,0
269,-5.1875,-3.625,32.75,-1.33,-1.74,9.81,0,0,0
270,-13.5625,-4,32.1875,-1.16,-2.17,9.23,0,0,0
271,-11.375,-4.1875,31.9375,-1.19,-2.16,9.17,0,0,0
272,-2.0625,-7.25,30.6875,-1.13,-2.16,9.15,0,0,0
273,2.6875,-13.125,27.8125,-0.81,-2.01,9.19,0,0,0
274,2.25,-14.375,26.6875,-0.72,-1.95,9.08,0,0,0
275,-1.125,-12.4375,24.375,-0.54,-2.06,8.79,0,0,0
276,-2.25,-8.1875,23,-0.43,-2,8.82,0,0,0
277,-4.625,2.75,19.875,-0.32,-2.01,9.08,0,0,0
278,-5.0625,11.4375,18,-0.42,-2.06,9.14,0,0,0
279,-3.9375,11.5625,17,-0.62,-2.4,9.08,0,0,0
280,3.4375,6.375,11.9375,-0.77,-2.41,9.13,0,0,0
281,8.8125,4.1875,8.375,-0.82,-2.22,9.33,0,0,0
282,10.875,0.5,2,-0.7,-1.58,9.54,0,0,0
283,1.125,-2.5,-1.5,-0.56,-1.28,9.57,0,0,0
284,-4.625,-3.375,-1.6875,-0.33,-1.37,9.09,0,0,0
285,-5.125,-3.1875,-0.5625,-0.28,-1.55,8.61,0,0,0
286,6.125,-1.75,0.125,-0.25,-1.57,8.54,0,0,0
287,11.125,1.3125,-0.0625,-0.24,-1.37,8.85,0,0,0
288,9.6875,8.5,-0.875,-0.22,-1.02,9.45,0,0,0
289,2.9375,10.75,-0.875,-0.2,-1.02,9.49,0,0,0
290,-11.125,12.5625,-0.625,-0.16,-1.49,9.26,0,0,0
291,-12.5,12,-1.625,-0.11,-1.81,9.18,0,0,0
292,-8.1875,11.625,-2.625,-0.21,-1.94,9.11,0,0,0
293,6.1875,12.3125,-8.375,-0.35,-1.98,9.27,0,0,0
294,13.125,13.25,-12.25,-0.39,-1.86,9.34,0,0,0
295,19.0625,15.75,-20.25,-0.42,-1.46,9.81,0,0,0
296,18.25,16.4375,-23.1875,-0.45,-1.24,9.99,0,0,0
297,7.3125,15.125,-27.4375,-0.47,-1.05,10.19,0,0,0
298,-5.625,8.8125,-28.0625,-0.34,-1.06,9.94,0,0,0
299,-8.5625,4.4375,-26.5,-0.26,-1.2,9.73,0,0,0
300,-2.125,-0.5,-23.25,-0.36,-1.51,9.28,0,0,0
301,3.6875,-1.4375,-22.75,-0.49,-1.55,9.28,0,0,0
302,12.0625,0.8125,-26.25,-0.66,-1.16,9.67,0,0,0
303,7.875,1.125,-31.125,-0.58,-1.08,9.74,0,0,0
304,3.625,0.6875,-32.625,-0.59,-0.87,9.59,0,0,0
305,-2.625,-0.25,-36.8125,-0.58,-0.75,9.38,0,0,0
306,-4,-0.125,-38.5,-0.5,-0.68,9.28,0,0,0
307,-0.125,4.0625,-38.25,-0.42,-0.68,9.11,0,0,0
308,9.3125,10.1875,-35.6875,-0.8,-0.69,9.36,0,0,0
309,13.5625,11.25,-35.4375,-0.92,-0.55,9.58,0,0,0
310,15.3125,8.75,-36.5,-1.04,-0.12,9.91,0,0,0
311,5.625,1.6875,-34,-0.9,0.22,9.96,0,0,0
312,0.1875,-1.6875,-30.4375,-0.78,0.11,9.62,0,0,0
313,-1.6875,-4.25,-22.875,-0.91,-0.3,9.19,0,0,0
314,0.875,-3.5625,-20.4375,-1.02,-0.36,9.21,0,0,0
315,5.125,-0.6875,-18.8125,-1.22,-0.35,9.45,0,0,0
316,4.5625,1.9375,-18.625,-1.2,-0.31,9.51,0,0,0
317,4,2.5625,-17.9375,-1.18,-0.33,9.45,0,0,0
318,5.4375,3,-15.25,-1.13,-0.44,9.37,0,0,0
319,7.4375,3.1875,-13.5625,-1.19,-0.57,9.28,0,0,0
320,12.375,2.75,-11.4375,-1.31,-0.7,9.22,0,0,0
321,14.5,1.5625,-11.25,-1.35,-0.75,9.27,0,0,0
322,17.5,3.4375,-12.5625,-1.53,-0.55,9.32,0,0,0
323,13.8125,6.5,-14.3125,-1.58,-0.41,9.42,0,0,0
324,10.125,7.6875,-14.8125,-1.41,-0.18,9.27,0,0,0
325,5.4375,10.5625,-12.875,-1.42,-0.18,9.24,0,0,0
326,5.25,11.0625,-11.0625,-1.41,-0.28,9.08,0,0,0
327,10.5625,12.375,-8.125,-1.54,-0.34,9.14,0,0,0
328,19.6875,7.0625,-5.3125,-1.45,-0.39,8.98,0,0,0
329,30.5625,5.1875,-2.75,-0.98,-0.88,8.27,0,0,0
330,67.9375,9.1875,3.375,-1.11,-0.93,8.23,0,0,0
331,86.5,15.1875,5.0625,-1.34,-0.33,9.27,0,0,0
332,92.625,23.3125,3.6875,-1.68,0.36,10.07,0,0,0
333,61,24,-1.875,-2.25,0.93,10.55,0,0,0
334,39.625,19.8125,-4.5625,-2.26,1.01,10.34,0,0,0
335,10.5,6.75,-6.5,-1.69,0.6,9.27,0,0,0
336,21.625,-7.1875,-0.0625,-1.52,0.09,8.78,0,0,0
337,40.3125,-10.0625,5.75,-1.53,0.22,9.02,0,0,0
338,62.25,-14.75,16,-1.8,1.26,10.37,0,0,0
339,39.125,-20.5,20.625,-1.98,1.6,10.73,0,0,0
340,13.875,-28.4375,21.125,-2.18,1.96,10.41,0,0,0
341,-37.3125,-44.4375,22.375,-1.64,1.38,9.74,0,0,0
342,-60.1875,-42.5,26.0625,-1.01,0.67,9.15,0,0,0
343,-57.9375,-36.375,28.1875,-0.8,0.04,8.76,0,0,0
344,-34,-29.25,35,-1.09,-0.1,8.82,0,0,0
345,-22,-32.8125,39.5625,-0.99,0.04,8.86,0,0,0
346,-9.375,-39.4375,51.4375,-0.61,0.9,9.33,0,0,0
347,-10.625,-40.5625,56,-0.55,0.93,9.63,0,0,0
348,-29.5,-36.125,64.6875,-0.57,1.08,10.07,0,0,0
349,-45.25,-32.75,67.6875,-0.92,0.52,10.11,0,0,0
350,-75,-27.1875,65.5,-1.33,0.02,9.79,0,0,0
351,-95.75,-34.1875,58.5,-0.99,-0.77,9.32,0,0,0
352,-95,-40.0625,55.8125,-0.64,-0.8,9.37,0,0,0
353,-78.375,-52.8125,50.9375,-0.53,-0.62,9.68,0,0,0
354,-74.5,-61.5,50.5625,-0.31,-0.64,9.7,0,0,0
355,-77.5625,-71.25,50.75,-0.03,-1,9.44,0,0,0
356,-84.0625,-71.4375,47.5,0.18,-1.55,8.98,0,0,0
357,-84.625,-68.875,42.6875,0.28,-2.13,8.24,0,0,0
358,-69.625,-54.8125,29.8125,0.9,-2.56,7.58,0,0,0
359,-56.6875,-45.5,25.1875,1.07,-2.55,7.79,0,0,0
360,-42.125,-26.6875,20.8125,0.96,-1.73,9.17,0,0,0
361,-62.25,-18,19.1875,0.59,-1.74,9.35,0,0,0
362,-77.3125,-17.3125,17.4375,0.73,-2.38,8.73,0,0,0
363,-88.625,-19.75,15.875,0.9,-3.14,7.65,0,0,0
364,-55.375,-16.25,20.0625,0.97,-3.19,7.74,0,0,0
365,-33.9375,-14.3125,24,1.22,-2.85,8.41,0,0,0
366,-15.75,-10.125,31.625,0.78,-2.08,9.22,0,0,0
367,-33.5,-16.4375,39.1875,0.62,-2.19,9.09,0,0,0
368,-42.875,-19.75,42.1875,0.76,-2.67,8.43,0,0,0
369,-45.9375,-18.9375,45.5,1.07,-3.51,7.29,0,0,0
370,-27.8125,-5.0625,45.8125,1.26,-3.66,7.27,0,0,0
371,-17.5625,4.875,45.75,1.3,-3.63,7.84,0,0,0
372,-5.875,20.25,47.125,0.95,-3.31,8.5,0,0,0
373,-14.5,16.8125,48.6875,0.79,-3.38,8.71,0,0,0
374,-20.375,13.5625,48.875,0.88,-3.67,8.37,0,0,0
375,-25.625,12.5625,48.25,0.85,-4.42,8.12,0,0,0
376,-25.4375,16.1875,45.875,0.83,-4.63,7.98,0,0,0
377,-18.25,26.4375,37.5,0.81,-4.84,7.96,0,0,0
378,-8.125,36.0625,29.6875,0.6,-4.79,8.13,0,0,0
379,-5.0625,38.625,26.9375,0.43,-4.67,8.51,0,0,0
380,-4.8125,40.0625,22,0.11,-4.68,8.65,0,0,0
381,-6,39.8125,19.125,0.02,-4.76,8.83,0,0,0
382,-9.9375,39,12.75,0,-4.81,8.88,0,0,0
383,-11.8125,39.0625,9.625,-0.12,-4.84,8.95,0,0,0
384,-13.625,39.5625,4.875,-0.15,-5.13,8.61,0,0,0
385,4.1875,39.0625,3.5,-0.29,-5.26,8.25,0,0,0
386,26.0625,36.0625,4.125,-0.33,-5.33,7.76,0,0,0
387,77.75,34.5,7.6875,-0.25,-4.52,8.15,0,0,0
388,94.25,36.75,10.4375,-0.33,-3.48,8.92,0,0,0
389,91.125,38.25,16.25,-0.8,-2.84,9.93,0,0,0
390,56.6875,36.5625,14.875,-0.91,-2.91,10.05,0,0,0
391,39.3125,34.0625,11.625,-1.23,-3.4,9.32,0,0,0
392,25.8125,29.9375,3.25,-1.16,-3.58,8.85,0,0,0
393,30.8125,29.4375,0.375,-1.1,-3.46,8.93,0,0,0
394,41.75,30.6875,-0.5,-0.97,-3.14,9.31,0,0,0
395,46.9375,29.0625,0.6875,-1.01,-3.4,8.95,0,0,0
396,53.125,26.4375,0.6875,-1,-3.35,8.96,0,0,0
397,75.875,21.4375,-1.25,-1.06,-3.16,8.81,0,0,0
398,103.4375,14.1875,-2.8125,-1.18,-2.35,8.99,0,0,0
399,111.8125,10.5625,-3.375,-1.28,-2.06,9.22,0,0,0
400,112.125,13.75,-4.1875,-1.09,-1.3,9.53,0,0,0
401,103.8125,30.1875,-5.1875,-0.92,-1.31,9.48,0,0,0
402,104.3125,36,-6.8125,-1.43,-1.55,9.23,0,0,0
403,119.8125,30.75,-12.3125,-1.69,-1.56,9.05,0,0,0
404,152,10.4375,-20.6875,-1.68,-1.48,8.89,0,0,0
405,166.125,1.9375,-25.1875,-1.34,-0.11,9.52,0,0,0
406,165.1875,-3.5,-31.5,-1.08,1.19,9.88,0,0,0
407,152.25,-3.25,-35.5625,-1.1,1.38,9.89,0,0,0
408,119,1.8125,-45.5625,-1.05,1.49,9.47,0,0,0
409,103.0625,4,-50.75,-1.22,1.75,8.61,0,0,0
410,103.3125,2.875,-51.875,-1.17,2.01,8.78,0,0,0
411,99.25,4.0625,-49.1875,-1.1,3.01,9.4,0,0,0
412,89.5625,2.875,-46.625,-1.09,3,9.31,0,0,0
413,76.25,5.125,-41.4375,-1.35,2.36,8.14,0,0,0
414,84.375,4.6875,-39,-1.53,2.3,7.87,0,0,0
415,121.125,-2.4375,-32.5,-1.5,2.69,8.22,0,0,0
416,144.75,-6.125,-28.3125,-1.54,3.99,9.37,0,0,0
417,139.9375,-7.6875,-26.9375,-1.51,4.28,9.54,0,0,0
418,106.375,-9.625,-26.875,-1.67,4.23,8.93,0,0,0
419,88.9375,-9.1875,-29.0625,-1.56,4.21,8.6,0,0,0
420,69.625,-8.125,-32,-1.86,4.16,8.05,0,0,0
421,62.3125,-6.6875,-33.125,-1.67,4.29,8.09,0,0,0
422,59.125,-4.5625,-33.0625,-1.85,4.9,8.12,0,0,0
423,44.125,-7.625,-30.625,-1.9,4.98,7.87,0,0,0
424,35,-9.75,-28.6875,-1.77,4.89,7.83,0,0,0
425,23.625,-7.25,-25.125,-1.72,4.26,7.03,0,0,0
426,31.1875,3,-25.4375,-1.81,3.92,6.84,0,0,0
427,40.9375,10.25,-27.6875,-1.95,4.16,6.97,0,0,0
428,54.0625,19.8125,-32.125,-2.13,4.61,7.49,0,0,0
429,37,22.5,-35.125,-2.48,5.4,8.46,0,0,0
430,14.8125,20.875,-36.75,-2.51,5.57,8.74,0,0,0
431,-43.625,19.3125,-40,-2.65,5.42,8.91,0,0,0
432,-86.8125,22.625,-44,-2.6,4.71,8.17,0,0,0
433,-90.375,23,-45.3125,-2.98,4.2,7.85,0,0,0
434,-73.0625,15.0625,-38.375,-3.31,4.09,8.36,0,0,0
435,-60.5,-6.4375,-27.125,-3.32,4.18,8.67,0,0,0
436,-64.875,-18.8125,-22.9375,-3.27,4.46,9.6,0,0,0
437,-99.8125,-32.625,-18.5625,-3.37,4.28,9.77,0,0,0
438,-128.1875,-35.4375,-19.75,-3.3,3.72,9.31,0,0,0
439,-174.125,-27.75,-31.625,-2.52,2.77,7.58,0,0,0
440,-153.3125,-12.25,-35,-2.41,2.02,6.72,0,0,0
441,-126.5,-13.1875,-28.8125,-2.37,1.92,6.9,0,0,0
442,-66.875,-19.625,-8.6875,-2.32,2.09,8.35,0,0,0
443,-44.6875,-22.1875,1.0625,-2.61,2.07,9,0,0,0
444,-36.25,-28.6875,12.125,-3.26,1.93,10.39,0,0,0
445,-50.1875,-34.25,11.6875,-3.37,1.92,10.54,0,0,0
446,-100.5,-43.8125,2.625,-3.14,1.7,10.32,0,0,0
447,-150.25,-47.375,-8.6875,-2.47,0.79,8.75,0,0,0
448,-161.1875,-46.9375,-11.625,-2.1,0.42,8.25,0,0,0
449,-139.9375,-39.3125,-10.8125,-1.82,-0.45,7.77,0,0,0
450,-116.75,-36.9375,-7.4375,-1.91,-0.51,7.99,0,0,0
451,-74.375,-34.0625,-0.25,-2.08,-0.02,9.92,0,0,0
452,-68.8125,-41.3125,5.625,-2.37,0.08,10.3,0,0,0
453,-80.75,-51.5,6.75,-2.48,-0.13,10.38,0,0,0
454,-106.9375,-69.8125,5.625,-2.24,-1.19,9.32,0,0,0
455,-113.125,-73,3.5,-2.09,-1.52,8.99,0,0,0
456,-105.625,-66.1875,-3.5,-1.27,-2.09,8.25,0,0,0
457,-82.9375,-58.1875,-6.8125,-0.96,-1.83,8.71,0,0,0
458,-75.25,-56.8125,-5.5625,-1.08,-1.3,9.52,0,0,0
459,-81.0625,-63.625,-0.25,-1.07,-1.51,9.46,0,0,0
460,-91.4375,-70.6875,4.875,-0.49,-2.66,8.22,0,0,0
461,-86.4375,-67.5625,6.5,-0.32,-2.92,8,0,0,0
462,-65.9375,-56.625,7.1875,-0.26,-2.84,8.49,0,0,0
463,-58.8125,-49.4375,7.25,-0.08,-2.78,8.56,0,0,0
464,-60.125,-47,8.5625,0.15,-2.63,8.41,0,0,0
465,-57.1875,-43.6875,16,0.74,-2.9,7.58,0,0,0
466,-32.25,-31.8125,29.25,0.78,-2.99,7.45,0,0,0
467,-13.875,-26.375,37.125,0.76,-3.16,7.55,0,0,0
468,20.5,-19.875,51.3125,0.25,-3.13,8.1,0,0,0
469,31.0625,-18.4375,55.875,0.2,-3.07,8.59,0,0,0
470,34.8125,-17.125,60.125,0.38,-2.99,8.6,0,0,0
471,32.5,-14.0625,61.5,0.45,-2.96,8.62,0,0,0
472,25.75,-5.6875,63.8125,-0.13,-2.96,9.09,0,0,0
473,22.9375,0.75,62.875,-0.28,-3.15,9.59,0,0,0
474,6.25,0.4375,59.3125,-0.32,-3.48,9.98,0,0,0
475,-4.4375,-14.5,53.875,-0.31,-3.47,9.97,0,0,0
476,-7.5625,-25.375,51.75,-0.01,-3.34,9.81,0,0,0
477,-14.6875,-39.5,47.9375,0.09,-3.26,9.31,0,0,0
478,-18.625,-43.1875,47.0625,0.56,-3.38,8.72,0,0,0
479,-17.25,-35.875,47.875,0.65,-3.52,8.49,0,0,0
480,-8.0625,-25.375,50.6875,0.29,-3.14,8.42,0,0,0
481,1.3125,-23.3125,54,0.79,-4.57,7.98,0,0,0
482,25.6875,-23.375,54.625,0.2,-4,8.87,0,0,0
483,33.5625,-23.25,47.875,0.47,-3.75,8.99,0,0,0
484,31.6875,-22.875,37.75,0.89,-3.47,9.69,0,0,0
485,8.8125,-18.6875,32.375,-0.08,-3.5,10.11,0,0,0
486,-7.5,-20.375,26.875,-0.14,-3.56,9.99,0,0,0
487,-33.3125,-32.5625,11.625,0.53,-4.07,9.3,0,0,0
488,-33.25,-40.125,4.0625,0.68,-4.03,9.14,0,0,0
489,-30.125,-45.6875,3,0.8,-3.97,8.94,0,0,0
490,-18.25,-49.6875,2.375,1.22,-3.9,8.68,0,0,0
491,3.6875,-55.8125,7.125,1.25,-3.84,8.42,0,0,0
492,26.875,-59.1875,11.875,1.38,-4.1,7.47,0,0,0
493,83.1875,-68.125,25.8125,1.63,-3.44,7.19,0,0,0
494,107.0625,-65.8125,31.5625,1.79,-2.87,7.56,0,0,0
495,127.8125,-47.9375,35.8125,2.01,-2.2,8.4,0,0,0
496,105.5625,-16.5,31.5625,2.02,-2.1,8.43,0,0,0
497,92.8125,-1.875,28.4375,2.01,-2.25,8.23,0,0,0
498,85,16,32.375,1.8,-2.09,7.69,0,0,0
499,92.75,23.9375,37.375,1.6,-1.57,7.35,0,0,0
500,120.3125,28.625,38.4375,1.24,-1.53,8.05,0,0,0
501,129.3125,29,37.75,1.48,-1.46,8.42,0,0,0
502,142.3125,31.5,38.5625,1.36,-0.84,8.88,0,0,0
503,143.375,38.8125,36.5625,0.98,-0.22,9.76,0,0,0
504,136.1875,39.0625,35.3125,0.84,-0.11,9.65,0,0,0
505,116.625,33.4375,32.0625,0.43,0.39,9.72,0,0,0
506,104.4375,23.3125,27,0.6,0.23,9.41,0,0,0
507,83.5,13.125,18.6875,0.73,0.46,8.82,0,0,0
508,79.1875,7.625,13.75,0.94,0.37,8.26,0,0,0
509,88.25,11.0625,14.5,1.39,0.66,8.61,0,0,0
510,93.6875,28.6875,11.375,0.81,0.86,9.03,0,0,0
511,76.625,39,-2.9375,0.48,0.89,8.84,0,0,0
512,70.125,41.0625,-11.875,0.5,1.24,8.72,0,0,0
513,61.8125,44.375,-26.5625,0.52,1.71,8.64,0,0,0
514,59.0625,47.75,-29.3125,0.72,2.28,8.69,0,0,0
515,64.625,52.6875,-19.375,0.59,2.53,8.84,0,0,0
516,84.1875,45.3125,-0.75,-0.18,2.67,9.11,0,0,0
517,92.1875,38.75,5,-0.22,2.69,9.27,0,0,0
518,92.0625,27.5625,4.75,-0.43,2.6,9.18,0,0,0
519,73.1875,26.25,-9.5625,-0.39,2.51,9.22,0,0,0
520,57.375,31.3125,-21.125,-0.32,2.53,9.44,0,0,0
521,5.75,43.5625,-44.1875,-0.06,2.9,9.51,0,0,0
522,-43.9375,56.25,-58.4375,-0.21,2.97,9.6,0,0,0
523,-62.8125,55.25,-61.25,-0.75,2.72,9.16,0,0,0
524,-73.5,39.4375,-57.4375,-0.79,2.62,8.46,0,0,0
525,-62.5,33.5,-52,-1.04,1.92,8.39,0,0,0
526,-24.6875,26.0625,-36.5,-1.28,2.21,8.74,0,0,0
527,2.375,22.3125,-38.75,-1.77,1.8,10.26,0,0,0
528,1.5625,21.3125,-43.8125,-2.08,1.62,10.64,0,0,0
529,-25.75,16.375,-66.625,-2.36,1.38,10.62,0,0,0
530,-47.75,14.5625,-83.875,-2.31,1.56,10.54,0,0,0
531,-93.6875,17.375,-114.125,-1.21,2.45,9.94,0,0,0
532,-110.9375,17.8125,-119.75,-1.74,1.96,9.49,0,0,0
533,-116.5,19.375,-112.8125,-1.51,1.64,8.78,0,0,0
534,-77.3125,12.125,-96,-1.68,0.76,7.69,0,0,0
535,-40.5625,6.375,-86.3125,-1.8,0.88,7.92,0,0,0
536,31.8125,-3.9375,-64.125,-2.11,1.8,9.85,0,0,0
537,50.4375,-9.4375,-54.0625,-2.28,2.07,10.38,0,0,0
538,42.5625,-27.3125,-44,-3.16,1.82,11.33,0,0,0
539,-5.0625,-48.3125,-52.375,-3.06,1.69,11.32,0,0,0
540,-32.375,-54.6875,-60.3125,-2.41,1.67,10.3,0,0,0
541,-69.5,-58.125,-72.6875,-1.57,1.26,8.93,0,0,0
542,-70.625,-43.9375,-73.8125,-1.4,1.27,8.71,0,0,0
543,-63.4375,-36.9375,-71.5625,-1.96,0.67,9.1,0,0,0
544,-56.1875,-36.125,-72.6875,-2.58,-0.08,9.62,0,0,0
545,-56.375,-37.0625,-80.125,-1.91,-0.44,9.24,0,0,0
546,-59.25,-49.4375,-100.4375,-1.43,-0.95,9.03,0,0,0
547,-44.0625,-49.9375,-107.5,-1.13,-0.5,8.42,0,0,0
548,-27.875,-47.6875,-104.9375,-0.97,-0.42,8.35,0,0,0
549,6.625,-43.8125,-92.3125,-1.13,-0.18,9.27,0,0,0
550,15.3125,-44.4375,-83.125,-1.67,-0.57,10.1,0,0,0
551,5.375,-42.1875,-85.4375,-1.55,-0.72,10.21,0,0,0
552,-31.625,-32.6875,-105.75,-0.87,-0.71,9.71,0,0,0
553,-52.3125,-12.625,-127,-0.99,-0.71,8.52,0,0,0
554,-47.25,-6.4375,-133.25,-1.11,-0.61,8.22,0,0,0
555,-15.8125,-12.4375,-133.9375,-0.5,-0.41,8.48,0,0,0
556,12.25,-26.625,-113.375,0.48,-0.16,8.89,0,0,0
557,19.1875,-29.625,-98.625,0.41,-0.11,8.92,0,0,0
558,19.1875,-28.4375,-81.375,-0.45,-0.35,9.13,0,0,0
559,14.0625,-22,-80.1875,-0.68,-0.32,9.15,0,0,0
560,1.4375,-5.3125,-87.0625,-0.42,0,8.36,0,0,0
561,7.9375,9.875,-88.1875,0.28,0.26,8.32,0,0,0
562,15.5625,13.8125,-82.8125,0.47,0.27,8.48,0,0,0
563,24.875,15.875,-66.5,0.14,0.77,9.24,0,0,0
564,22.125,12,-58.125,0.03,0.79,9.41,0,0,0
565,11.4375,9,-44,-0.33,0.37,9.43,0,0,0
566,6.875,6.4375,-38.5,-0.26,0.28,9.37,0,0,0
567,2.75,2.75,-31.1875,-0.23,-0.09,9.33,0,0,0
568,-4.75,-2.0625,-30.125,-0.22,-0.12,9.35,0,0,0
569,-12.0625,-3.4375,-31.8125,-0.15,-0.21,9.36,0,0,0
570,-25.5625,-0.4375,-34.0625,-0.04,-0.49,8.6,0,0,0
571,-25.6875,3.75,-34.625,0.12,-0.81,8.35,0,0,0
572,-9,15.1875,-33.4375,-0.16,-1.02,8.45,0,0,0
573,11.9375,28.25,-35.625,-0.29,-0.83,8.91,0,0,0
574,13.375,31.5625,-37.1875,-0.65,0.06,9.74,0,0,0
575,-7.375,29,-34.25,-0.76,0.22,9.86,0,0,0
576,-7.375,29,-34.25,-0.73,-0.21,9.31,0,0,0
577,-11.875,26.5,-30.3125,-0.68,-0.41,9.16,0,0,0
578,3.4375,31.1875,-22.3125,-0.88,-0.01,9.56,0,0,0
579,3.4375,31.1875,-22.3125,-0.92,0.04,9.69,0,0,0
580,4.75,20.4375,-14,-1.12,-0.19,9.91,0,0,0
581,-8.5625,2.75,-16.125,-0.95,-1.52,9.58,0,0,0
582,-8.5625,2.75,-16.125,-1.02,-1.53,9.57,0,0,0
583,-21.875,5.5,-31.6875,-1.14,-1.34,9.07,0,0,0
584,-7.3125,25.1875,-45.9375,-0.95,-1.19,8.63,0,0,0
585,-7.3125,25.1875,-45.9375,-0.46,-0.43,8.66,0,0,0
586,19.875,27.5,-34.75,-0.74,-0.38,9.5,0,0,0
587,21.875,25.1875,-29.875,-1.49,-0.63,9.92,0,0,0
588,6.0625,21.4375,-32.5625,-2.08,-0.86,9.72,0,0,0
589,-9.5625,18.4375,-44.1875,-1.86,-0.23,8.99,0,0,0
590,-9.9375,19.5,-47,-1.68,0.12,8.92,0,0,0
591,-0.8125,21.8125,-38.5625,-1.21,0.65,9.02,0,0,0
592,4.0625,22.25,-29.625,-1.09,0.65,9.26,0,0,0
593,5.1875,20.0625,-8.625,-1.23,0.22,9.49,0,0,0
594,4.6875,18.6875,5.8125,-1.45,-0.21,9.21,0,0,0
595,9.125,18.1875,11.0625,-1.75,-0.16,9.05,0,0,0
596,16.1875,17.875,25.5625,-1.64,0.51,9.46,0,0,0
597,11.4375,20.1875,32.375,-1.42,0.75,9.68,0,0,0
598,4.875,22.6875,42.25,-0.79,0.64,9.88,0,0,0
599,-6.625,16.5,68.25,-0.86,0.02,9.77,0,0,0
600,0,7.75,92.0625,-1.16,-0.83,9.66,0,0,0
601,8.75,-4.75,104.25,-1.72,-0.96,9.66,0,0,0
602,10.125,-9.25,107.4375,-1.6,-0.76,9.74,0,0,0
603,7.4375,-12.625,117.5625,-1.3,0.17,9.58,0,0,0
604,2.9375,-17.0625,123.8125,-1.61,-0.1,9.44,0,0,0
605,-9.8125,-28.75,130.875,-2.28,-0.75,9.13,0,0,0
606,-26.75,-40.125,124.3125,-2.29,-1.21,9.03,0,0,0
607,-33.125,-39.5625,116.3125,-2.25,-1.06,8.98,0,0,0
608,-40.3125,-33.125,102.125,-1.95,-0.74,8.62,0,0,0
609,-37.5625,-26.6875,103.875,-0.86,-0.67,8.42,0,0,0
610,-31.0625,-23,110.4375,-0.62,-0.73,8.53,0,0,0
611,-11.6875,-14.875,119.8125,-0.71,-1.55,8.54,0,0,0
612,-1,-9.875,115.0625,-1.41,-1.87,9.21,0,0,0
613,-3.5,-8.9375,106.875,-1.71,-1.9,9.5,0,0,0
614,-16.1875,-4.875,85.6875,-1.97,-1.32,9.78,0,0,0
615,-29.9375,-1.6875,69.125,-1.84,-0.96,9.72,0,0,0
616,-35.75,-3.1875,67.6875,-0.41,-0.24,9.51,0,0,0
617,-34.5625,-4.125,79.9375,-0.23,-0.97,9.21,0,0,0
618,-7.625,4.3125,93.875,-0.52,-1.49,9.08,0,0,0
619,9.625,7.6875,98.5,-1.46,-1.24,8.88,0,0,0
620,30.4375,10.625,93.3125,-1.76,0,9.48,0,0,0
621,23.5,9.25,86.3125,-1.33,0.4,9.62,0,0,0
622,15.5625,9.3125,87.5625,-0.75,0.25,9.68,0,0,0
623,6.125,12.25,93,-1.27,-0.66,9.48,0,0,0
624,4.5,13.125,94.9375,-1.49,-0.74,9.53,0,0,0
625,1.0625,17.375,88.875,-1.95,0.02,10.07,0,0,0
626,-5.875,13.3125,82.1875,-2.05,0.49,10.09,0,0,0
627,-22.3125,0.5625,70.5625,-1.64,0.58,9.82,0,0,0
628,-30.25,-6.875,69.1875,-1.3,0.36,9.83,0,0,0
629,-40.9375,-12.625,77.375,-0.9,0.17,9.82,0,0,0
630,-39.0625,-10.375,89.75,-1.24,0.04,9.68,0,0,0
631,-33.6875,-9.9375,94.1875,-1.41,0.16,9.44,0,0,0
632,-21.6875,-19.875,96.625,-1.69,-0.24,8.99,0,0,0
633,-16.1875,-25.875,96.5,-1.58,-0.29,8.99,0,0,0
634,-9.4375,-27.25,97.5,-0.66,0.04,9.25,0,0,0
635,5,-26.4375,106.9375,-0.64,0.08,9.23,0,0,0
636,20.625,-25.3125,117.375,-0.61,-0.21,8.65,0,0,0
637,54,-23.8125,142.75,-0.47,0.16,8.75,0,0,0
638,64.75,-20.75,152.75,-0.53,0.23,8.73,0,0,0
639,75.5,-12.9375,162.6875,-0.69,0.71,9.06,0,0,0
640,82.9375,-7.25,158.75,-0.65,0.96,8.82,0,0,0
641,86.375,-6.5625,153.5,-1.09,0.37,9.39,0,0,0
642,74.375,-5,142.625,-1.32,0.31,10.16,0,0,0
643,21.625,-3.1875,122.125,-1.42,1.19,11.29,0,0,0
644,-13.6875,1.5,108.9375,-1.27,1.35,11.43,0,0,0
645,-80.375,-1,88.375,-1.02,-0.68,10.51,0,0,0
646,-96.5625,-11.875,59.4375,-0.82,-0.9,9.15,0,0,0
647,-87.75,-18.4375,45.3125,-0.47,-1.2,8.56,0,0,0
648,-59.1875,-14.75,32.75,0,-1.19,8.21,0,0,0
649,-33.75,3.125,32.375,0.13,-1.12,8.63,0,0,0
650,-25.375,3,33.625,-0.68,-1.44,9.23,0,0,0
651,-5.375,-1.125,36.0625,-0.03,-1.25,9.32,0,0,0
652,3.875,-6.3125,33.1875,-0.67,-1.03,9.54,0,0,0
653,3.0625,-18,25.8125,-0.22,-0.71,9.7,0,0,0
654,-16.25,-15.25,20.75,0.28,-0.37,8.82,0,0,0
655,-23.5625,-5.625,21.6875,0.54,-0.28,8.39,0,0,0
656,-16.3125,26.375,30.125,0.42,-0.68,8.4,0,0,0
657,-7.5,35.25,33.4375,-0.07,-0.8,8.72,0,0,0
658,1.25,31.1875,30.1875,-0.99,-0.87,9.98,0,0,0
659,-0.4375,22.875,23.4375,-0.95,-0.63,10.36,0,0,0
660,-10.5625,-4.75,13.625,-1.16,-0.44,10.49,0,0,0
661,-18.3125,-20.625,16.6875,-0.48,0.31,9.75,0,0,0
662,-20,-21.3125,23.5,0.11,0.26,9.3,0,0,0
663,-13.375,-12.6875,41.6875,0.02,-0.34,8.43,0,0,0
664,-7.875,-7.8125,44.5625,-0.03,-1.09,8.22,0,0,0
665,2.875,-2.8125,40.3125,-0.18,-1.25,9.24,0,0,0
666,-8.5,0.4375,29.8125,-0.34,-0.76,9.51,0,0,0
667,-21.4375,2.125,26.75,-0.33,-0.2,9.92,0,0,0
668,-39.1875,3.8125,29.0625,0.08,-0.55,9.21,0,0,0
669,-37.625,9.375,33.375,0.03,-1.08,8.95,0,0,0
670,-18.1875,15.4375,31.9375,-0.68,-2.15,8.91,0,0,0
671,1.75,11.9375,16.4375,-0.67,-1.3,10.04,0,0,0
672,0.625,7.875,12.3125,-0.22,-0.06,10.86,0,0,0
673,-21,-8.0625,14.0625,-0.65,0.18,10.14,0,0,0
674,-38.25,-24.375,27.3125,-0.12,-0.36,8.93,0,0,0
675,-34.25,-26.6875,32.75,0.04,-0.85,8.25,0,0,0
676,-0.0625,-16.9375,43.25,0.25,-1.57,8.59,0,0,0
677,27,-1.9375,51.875,-0.01,-1.84,9.12,0,0,0
678,33.875,-2,54.1875,-0.5,-1.93,9.49,0,0,0
679,47.75,-12.0625,52.0625,-0.45,-0.67,9.53,0,0,0
680,49.4375,-19.8125,47.8125,-0.33,-0.14,9.5,0,0,0
681,37.875,-30.75,46.0625,-0.02,-0.21,9.4,0,0,0
682,23.25,-19.375,53.875,-0.07,-0.47,9.3,0,0,0
683,16.875,-9.5625,58.4375,0.2,-0.66,9.79,0,0,0
684,3.6875,9.6875,61.3125,0.11,-0.86,10.27,0,0,0
685,-5.125,11.3125,62.625,-0.76,-1.04,10.85,0,0,0
686,-17.375,-12.5625,49.4375,-0.94,-0.79,9.87,0,0,0
687,-20.25,-29.5,36.9375,-0.75,-0.54,9.52,0,0,0
688,-26.5625,-39.9375,26.5,0.35,-1.05,9.49,0,0,0
689,-32,-21.375,32.375,0.42,-1.36,8.85,0,0,0
690,-29.4375,-11.5,32.625,0.51,-1.65,8.38,0,0,0
691,-18.5,0.25,26.3125,0.06,-1.66,8.36,0,0,0
692,-10.75,1.25,21.875,0.67,-0.88,8.53,0,0,0
693,3.4375,2.125,23.1875,0.6,-0.73,8.59,0,0,0
694,11.875,1.8125,30.1875,0.41,-0.76,8.59,0,0,0
695,14.75,2.5625,32.4375,0.33,-1.21,8.68,0,0,0
696,17.4375,5.5625,30.8125,0.26,-1.42,9.55,0,0,0
697,15.375,7.125,26.25,0.12,-1.49,9.88,0,0,0
698,8.9375,5.9375,11,-0.17,-1.67,9.95,0,0,0
699,3.8125,-5.4375,-7.9375,0.03,-1.51,9.57,0,0,0
700,1.8125,-6.75,-15.375,0.45,-1.26,9.5,0,0,0
701,-2.375,1.375,-22.25,0.65,-0.86,9.46,0,0,0
702,-3.75,9.4375,-24.5,0.49,-0.92,9.62,0,0,0
703,-1.8125,7.9375,-23.875,0.34,-1.33,9.64,0,0,0
704,11.5625,-4.3125,-26.5,0,-2.18,9.41,0,0,0
705,21.125,-15.125,-33.25,-0.08,-2.7,8.99,0,0,0
706,50.1875,-30.5625,-62.125,0.08,-1.81,8.02,0,0,0
707,62.5,-15.9375,-88.3125,1.18,0.24,9.71,0,0,0
708,54.5625,-3.6875,-87.875,0.68,0.24,9.46,0,0,0
709,39.375,5.9375,-80.75,-0.02,-0.04,9.16,0,0,0
710,36.25,0.25,-79.8125,-0.52,-0.91,8.87,0,0,0
711,37.9375,-17,-95.8125,-0.55,-0.52,8.59,0,0,0
712,39.375,-13.1875,-111.0625,-0.08,0.53,9.53,0,0,0
713,19.125,7.6875,-115.5,1.24,2.5,10.25,0,0,0
714,-12.3125,17.1875,-83.125,0.17,1.25,9.73,0,0,0
715,-20.4375,11.125,-66.9375,0.01,0.9,9.46,0,0,0
716,-20.5,-13.125,-53.5,-0.31,0.08,8.99,0,0,0
717,-15.625,-20.25,-56.6875,0.39,0.77,8.98,0,0,0
718,-8.875,-13.0625,-61.875,1.42,1.39,9.51,0,0,0
719,-10.125,1.4375,-46.5,1.04,0.85,9.61,0,0,0
720,-7.75,3,-36.6875,0.41,0.14,9.21,0,0,0
721,4.5625,-4.875,-28.625,0.28,-0.08,9.29,0,0,0
722,8.625,-7.6875,-28.9375,0.33,0.03,9.46,0,0,0
723,5.6875,-4.9375,-29.75,0.7,0.54,9.75,0,0,0
724,-3.125,1.8125,-24.5,0.5,0.44,9.81,0,0,0
725,-4.9375,2.6875,-21.8125,0.16,0.08,9.55,0,0,0
726,1.25,-6.8125,-25.625,-0.26,-1,9.24,0,0,0
727,9.375,-15.3125,-41,-0.02,-1.01,9.21,0,0,0
728,12,-14.375,-48.75,0.45,0.02,9.12,0,0,0
729,10.375,-9.25,-52.9375,0.54,0.56,9.42,0,0,0
730,8.3125,-6.8125,-49.875,0.24,0.17,9.14,0,0,0
731,9.5,-7.625,-45,0.25,-0.1,8.76,0,0,0
732,12.6875,-7.25,-47.9375,0.55,-0.19,8.53,0,0,0
733,10.375,-5.25,-53.5,0.67,0.26,9,0,0,0
734,2.875,11.75,-64,1.1,0.86,9.33,0,0,0
735,-1.25,16,-64.9375,0.42,0.84,9.05,0,0,0
736,2.125,14.8125,-65,0.25,0.32,8.94,0,0,0
737,4.125,7.4375,-63.0625,-0.02,0.15,9.23,0,0,0
738,4.3125,0.625,-57.6875,0.27,0.69,9.47,0,0,0
739,-7.75,7.0625,-52,0.45,0.78,9.89,0,0,0
740,-12.6875,9.1875,-49.6875,0.33,0.33,9.63,0,0,0
741,-7.6875,3.5625,-51.3125,-0.09,-0.41,8.82,0,0,0
742,0.5,-1.9375,-54.1875,-0.25,-0.57,9.01,0,0,0
743,9.4375,-4.875,-61.1875,-0.6,-1.37,9.79,0,0,0
744,6.375,-5.8125,-81.0625,0.05,0.96,9.39,0,0,0
745,2.5,-5.5,-81.5625,0.81,0.9,10.07,0,0,0
746,-18.125,-4.9375,-65.1875,0.22,0.14,9.51,0,0,0
747,-21.75,-7.6875,-60.8125,-0.05,0.02,9.11,0,0,0
748,-7.125,-13.4375,-66.875,0.2,0.26,8.82,0,0,0
749,7.3125,-14.25,-67.0625,0.09,0.42,9.2,0,0,0
750,9.75,-12.125,-64.8125,0.29,0.44,9.23,0,0,0
751,3.6875,-5.8125,-62.4375,0,0.09,9.7,0,0,0
752,-8.3125,-5.6875,-70.625,0,-0.07,9.63,0,0,0
753,-11.5625,-3.75,-75.25,0.19,0.05,9.36,0,0,0
754,-10.3125,0.5625,-82.5,-0.07,0.39,8.77,0,0,0
755,-7.125,0.875,-85.125,-0.08,0.45,8.64,0,0,0
756,-3.0625,5.625,-85,0.47,0.6,8.74,0,0,0
757,1.5625,19.125,-80,0.12,0.3,8.9,0,0,0
758,3.75,24.875,-79.4375,-0.32,0.22,9.11,0,0,0
759,4.1875,24.625,-86.125,-0.69,0.18,9.27,0,0,0
760,1.25,19.875,-90.375,-0.47,1.21,9.72,0,0,0
761,-12.5,18.375,-86.375,0.19,1.65,10,0,0,0
762,-20.8125,20.375,-78.875,0.21,1.32,9.51,0,0,0
763,-19.9375,21,-68.9375,-0.23,0.4,8.46,0,0,0
764,7.4375,16.25,-64.8125,-0.73,-0.43,8.25,0,0,0
765,21.125,15.375,-65.9375,-0.98,-0.49,8.81,0,0,0
766,30.5,6.5625,-71.375,-0.9,0.61,9.67,0,0,0
767,27.1875,4.25,-72.1875,-0.67,0.92,9.59,0,0,0
768,17.5,2.25,-67.9375,-0.39,0.76,9.26,0,0,0
769,9.4375,4.4375,-63.6875,-0.36,0.67,9.14,0,0,0
770,6.375,8.4375,-64.0625,-0.67,0.16,9.24,0,0,0
771,-2.0625,15.8125,-68.1875,-0.9,-0.07,9.54,0,0,0
772,-5.3125,17.625,-71.5,-0.99,-0.07,9.48,0,0,0
773,-9.8125,13,-80,-1.57,-0.19,9.23,0,0,0
774,-6.1875,5.4375,-90.0625,-1.4,0.06,9.04,0,0,0
775,-1.25,4.625,-91.5,-0.77,0.78,9,0,0,0
776,2.75,4.125,-83.1875,-0.38,1.09,9.16,0,0,0
777,3.5,5.25,-72.6875,-1.18,0.16,9,0,0,0
778,3.625,3.875,-72.5,-1.44,-0.12,9.04,0,0,0
779,2.875,5.25,-84.5,-1.36,-0.32,9.14,0,0,0
780,4.1875,15.875,-98.5625,-1.5,-0.26,9.27,0,0,0
781,1.9375,15.75,-103.625,-1.43,0.59,9.52,0,0,0
782,-1,15.4375,-100.8125,-1.06,0.95,9.59,0,0,0
783,-0.6875,13.375,-94.875,-1.24,0.75,9.45,0,0,0
784,5.5,6.25,-88.5625,-1.9,-0.03,9.39,0,0,0
785,8.75,0.5,-91.625,-1.88,0.07,9.52,0,0,0
786,6.125,1.125,-93.9375,-1.82,0.37,9.67,0,0,0
787,-4.125,1.875,-96.8125,-1.86,0.56,9.37,0,0,0
788,-7.1875,1.4375,-96.3125,-1.67,0.93,9.13,0,0,0
789,-0.1875,7.1875,-85.1875,-0.97,0.84,8.59,0,0,0
790,8.0625,11.5,-77.125,-1.12,0.56,8.54,0,0,0
791,24.5,14.8125,-67.1875,-1.89,-0.38,9.01,0,0,0
792,30.875,13.4375,-70.9375,-2.1,-0.6,9.33,0,0,0
793,30.125,11.3125,-75.6875,-2.39,-0.22,9.85,0,0,0
794,18.0625,4.5,-83.0625,-2.26,0.32,9.92,0,0,0
795,7.875,2.5,-84.8125,-2.16,0.54,9.86,0,0,0
796,-13.625,0.8125,-84.75,-1.39,0.82,9.11,0,0,0
797,-16.1875,10.0625,-76.5,-1.26,0.63,8.78,0,0,0
798,-9.0625,16.375,-71.3125,-1.34,0.01,8.38,0,0,0
799,7.375,24.4375,-63.0625,-1.81,0.02,8.69,0,0,0
800,11.375,21.625,-59.9375,-2.19,0,9.08,0,0,0
801,11.625,16.75,-58.25,-2.42,0.16,9.57,0,0,0
802,-1.6875,10.5625,-58.4375,-2.35,0.35,9.69,0,0,0
803,-8,11.375,-57.75,-2.23,0.47,9.59,0,0,0
804,-13.75,15,-49.6875,-1.65,0.55,9.21,0,0,0
805,-2.875,21,-32.1875,-2,0.19,9.08,0,0,0
806,5.25,19.625,-24.75,-2.19,0.09,9.06,0,0,0
807,14.75,10.3125,-12.9375,-2.46,0.02,9.61,0,0,0
808,2.25,4.75,-9.3125,-2.97,-0.1,10.1,0,0,0
809,-9.8125,2.5,-10.5,-2.92,-0.22,9.92,0,0,0
810,-23.9375,-4.625,-12.5,-2.8,-0.62,9.16,0,0,0
811,-12.1875,-10.0625,-9.8125,-2.45,-0.43,8.42,0,0,0
812,0.0625,-11.0625,-2.875,-1.59,0.12,7.94,0,0,0
813,24,-3.4375,18.6875,-1.98,0.83,8.44,0,0,0
814,26.625,-0.5,27.5,-2.05,1.28,8.82,0,0,0
815,11.0625,7.5,42,-1.76,1.5,10.02,0,0,0
816,-3.75,10.125,49.875,-1.73,1.1,10.03,0,0,0
817,-22.9375,12.8125,60.0625,-2.21,-0.03,9.87,0,0,0
818,-25.375,8.75,61.5,-2.46,-0.73,9.6,0,0,0
819,-16.25,-2.4375,63.5625,-2.4,-0.78,9.2,0,0,0
820,1.5,-8.4375,71.375,-1.97,0.12,8.89,0,0,0
821,9.6875,-9.0625,77.3125,-1.9,0.12,9.28,0,0,0
822,9.125,-16.625,82.875,-2.63,0.01,10.34,0,0,0
823,-1.5625,-24.6875,80.125,-2.71,-0.17,10.51,0,0,0
824,-31.0625,-36.3125,70.375,-2.73,-0.08,9.81,0,0,0
825,-44.0625,-35.5625,64.5625,-2.4,-0.05,9.39,0,0,0
826,-41,-34.1875,68.9375,-1.59,0.38,8.72,0,0,0
827,-19.375,-37.6875,87.375,-1.38,0.34,8.53,0,0,0
828,-10.8125,-39.3125,93.6875,-1.86,-0.11,8.78,0,0,0
829,-11.9375,-39.8125,90.3125,-2.63,-0.69,9.43,0,0,0
830,-26.1875,-35.3125,71.9375,-2.21,-0.92,9.21,0,0,0
831,-28.8125,-30.8125,64.625,-1.76,-0.7,8.55,0,0,0
832,-19.5625,-26.125,59.5,-0.79,-0.03,8.07,0,0,0
833,0.75,-18.5,69.625,-0.83,0.67,8.46,0,0,0
834,5.6875,-14.8125,74.9375,-0.89,0.26,8.77,0,0,0
835,6.6875,1.0625,76.6875,-1.95,-0.42,9.85,0,0,0
836,-8.4375,2.125,64.75,-2.01,-0.6,10.45,0,0,0
837,-17.4375,-2.75,56.875,-2.03,-0.5,10.47,0,0,0
838,-29.8125,-14.125,44.6875,-0.99,0.18,9.61,0,0,0
839,-23.8125,-15.4375,51.125,-0.63,0.32,9.27,0,0,0
840,-14.9375,-13.5625,60,-0.33,0.54,8.48,0,0,0
841,2.6875,-5,79.3125,-0.99,0.4,8.98,0,0,0
842,0,0.375,79.875,-1.43,-0.17,9.86,0,0,0
843,-9,1.625,74.1875,-1.66,-0.25,10.5,0,0,0
844,-26.125,0.1875,61.9375,-1.45,-0.03,9.98,0,0,0
845,-25.625,-5.9375,63,-1.06,0.52,9.61,0,0,0
846,-16.75,-5.1875,73.5,-0.35,0.78,9.44,0,0,0
847,-4.3125,-9.4375,97.625,-0.82,0.45,10.1,0,0,0
848,-5.5625,-16.5,105,-0.96,0.03,10.26,0,0,0
849,-18.3125,-29.375,104.1875,-1.41,-1,10.36,0,0,0
850,-27.1875,-32.125,97.4375,-1.52,-1.29,10.06,0,0,0
851,-35.25,-30.125,76,-1.22,-0.66,8.35,0,0,0
852,-31.125,-28.75,69.25,-0.34,-0.19,8.03,0,0,0
853,-11.9375,-11.75,80.0625,0.33,0.35,8.29,0,0,0
854,-7.1875,2.8125,98.1875,-0.2,-0.53,8.72,0,0,0
855,-5.9375,7.125,100.25,-0.84,-1.01,8.81,0,0,0
856,-2.625,8,89.125,-1.29,-1.76,9.19,0,0,0
857,-2.4375,8.625,80.75,-1.3,-1.52,9.48,0,0,0
858,-11.5625,7,64.875,-1.43,-0.6,9.87,0,0,0
859,-29.75,0.875,55.125,-1.26,-0.01,9.86,0,0,0
860,-39.0625,-1.125,58.6875,-0.12,0.53,9.67,0,0,0
861,-49.8125,-4,78.5625,0.07,-0.14,9.26,0,0,0
862,-43.9375,-4.25,89.625,-0.47,-0.98,8.25,0,0,0
863,-2.375,-4.375,103.5625,-1,-1.79,8.03,0,0,0
864,36.6875,-5,103.375,-1.86,-1.93,9.57,0,0,0
865,37.25,-7.8125,94.0625,-1.8,-1.8,10.16,0,0,0
866,3.4375,-14,67.0625,-1.35,-1.3,10.7,0,0,0
867,-46,-10.3125,45.1875,-0.58,-1.14,10.21,0,0,0
868,-61.4375,-7.5625,39.0625,-0.66,-1.01,9.75,0,0,0
869,-48,-1.6875,42.0625,0.04,-1.81,8.29,0,0,0
870,0.5625,-1.8125,57.1875,-0.04,-1.85,8.24,0,0,0
871,18.625,-2.9375,60.8125,-0.69,-1.37,9.85,0,0,0
872,14.0625,-8.125,58,-0.95,-0.66,10.67,0,0,0
873,-4.75,-14.125,54.3125,-0.72,-0.52,10.44,0,0,0
874,-38.1875,-20.625,51.3125,-0.32,-1.03,9.69,0,0,0
875,-43.8125,-15.125,53.6875,-0.64,-1.69,8.93,0,0,0
876,-39.875,-9.5625,52.5,-0.62,-1.74,8.88,0,0,0
877,-36.875,0.125,46.1875,-0.32,-1.4,8.97,0,0,0
878,-38.375,0.4375,45.875,-0.07,-1.87,8.8,0,0,0
879,-29.625,5.1875,49.75,0.14,-2.78,8.44,0,0,0
880,-13.25,7.3125,50.125,-0.28,-3.75,7.58,0,0,0
881,48.5625,8.5,38.75,-0.93,-4.43,7.27,0,0,0
882,109.6875,2.75,7.625,-1.07,-2.95,8.66,0,0,0
883,125.5625,-0.5625,-8.8125,-1,-2.21,9.29,0,0,0
884,128.375,-5.625,-29.3125,-0.39,-0.61,9.69,0,0,0
885,129.25,-10.6875,-33.375,-0.68,-0.35,9.47,0,0,0
886,147.1875,-24.3125,-31,-0.53,-0.01,9.12,0,0,0
887,166.25,-34.25,-24.3125,-0.59,0.23,9.2,0,0,0
888,166.375,-34.1875,-25.75,-0.55,1.24,9.95,0,0,0
889,133.5,-30.125,-33.75,-0.44,2.18,10.76,0,0,0
890,105.9375,-28.6875,-38,-0.49,2.15,10.67,0,0,0
891,64.1875,-25.5,-47.375,-0.23,1.63,8.99,0,0,0
892,64.3125,-19.4375,-51,0.06,1.61,8.14,0,0,0
893,75,-16.375,-49.3125,0,1.75,8.17,0,0,0
894,92.375,-8.25,-42.125,0.12,2.66,8.91,0,0,0
895,84.0625,-8.625,-34,-0.2,2.71,9.1,0,0,0
896,78.5,-12.125,-32.125,-0.31,2.51,8.82,0,0,0
897,82.6875,-17.625,-32.3125,-0.12,2.38,8.36,0,0,0
898,89.125,-18.0625,-34.5625,-0.15,2.61,8.14,0,0,0
899,88.1875,-17.625,-38.1875,-0.08,2.68,8.04,0,0,0
900,82.5,-8.9375,-46.75,-0.07,3.05,8.18,0,0,0
901,74.75,3.5,-54.5625,0.01,3.23,8.11,0,0,0
902,70.375,6.6875,-56.5,-0.23,3.76,8.27,0,0,0
903,57.6875,6.0625,-57.6875,-0.32,4.17,8.44,0,0,0
904,34.1875,2.0625,-56.0625,-0.32,4.31,8.46,0,0,0
905,16.5,-0.5,-56.3125,-0.3,4.39,8.29,0,0,0
906,-5.375,0.25,-56,-0.42,3.48,6.53,0,0,0
907,-0.125,6.6875,-55.5,-0.32,3.55,6.44,0,0,0
908,20.875,20.6875,-53.8125,-0.35,3.67,6.59,0,0,0
909,33.6875,33.875,-51.5,-0.92,4.1,7.76,0,0,0
910,27.5625,37.0625,-53,-1.15,4.18,8.21,0,0,0
911,-12.6875,38.6875,-61.125,-1.22,4.52,8.7,0,0,0
912,-38.9375,46.1875,-65,-1.04,4.72,8.81,0,0,0
913,-73.9375,64.625,-67.8125,-1.46,4.31,7.76,0,0,0
914,-74,67.8125,-63.4375,-1.74,3.93,7.52,0,0,0
915,-50.875,59.25,-49.875,-2.33,3.37,7.52,0,0,0
916,-32.0625,44,-48.1875,-2.97,3.11,8.61,0,0,0
917,-34.75,39.9375,-51.8125,-3.1,3.25,8.9,0,0,0
918,-61.625,42.9375,-60.25,-2.26,3.98,9.08,0,0,0
919,-78.9375,47.6875,-60.125,-1.67,4.1,8.7,0,0,0
920,-85.3125,60.5,-45.5,-2.42,3.08,7.65,0,0,0
921,-58.1875,55.125,-24.9375,-2.74,2.91,7.76,0,0,0
922,-45.625,46.375,-18.5,-3.64,2.56,8.77,0,0,0
923,-42.6875,28.625,-16.875,-4.03,2.89,9.6,0,0,0
924,-56.0625,22.8125,-19.125,-3.96,3.19,9.89,0,0,0
925,-101.4375,25.8125,-19.875,-3.25,3.53,10.3,0,0,0
926,-140.375,22.25,-12,-3.6,3.02,9.68,0,0,0
927,-146.0625,14.75,-7.3125,-4.12,2.33,9.32,0,0,0
928,-142.4375,-8.125,2,-4.35,2.14,9.52,0,0,0
929,-144.3125,-38.8125,8.5,-3.9,1.59,9.4,0,0,0
930,-145.5625,-44.375,11.8125,-3.56,0.97,9.43,0,0,0
931,-140.5625,-40.25,17.0625,-3.75,-0.51,8.65,0,0,0
932,-115.75,-45,17.0625,-3.6,-1.36,8.29,0,0,0
933,-95.75,-48.5625,16.75,-3.37,-1.66,8.48,0,0,0
934,-67.3125,-55.4375,14.5625,-3.42,-1.24,9.55,0,0,0
935,-81.625,-58.625,7.5,-3.36,-1.14,9.91,0,0,0
936,-96.875,-56.5,2.1875,-3.18,-1.21,10.16,0,0,0
937,-118.625,-58.1875,-6.625,-2.69,-1.85,9.06,0,0,0
938,-95,-55.625,-6.6875,-2.23,-2.47,8.22,0,0,0
939,-76.3125,-56.125,-3.4375,-2.31,-2.37,8.53,0,0,0
940,-53.875,-61.625,1.25,-2.2,-2.12,9.21,0,0,0
941,-59.625,-62.3125,-0.0625,-2.17,-1.99,9.36,0,0,0
942,-68.8125,-59.3125,-1.75,-1.7,-2.04,9.29,0,0,0
943,-83.5625,-54.9375,-2.4375,-1.47,-2.5,8.63,0,0,0
944,-81.1875,-52.6875,-0.6875,-1.22,-2.94,8.2,0,0,0
945,-60.9375,-49.1875,4.5,-1.16,-3.07,8.35,0,0,0
946,-49.375,-49.125,8.625,-1.05,-2.98,8.37,0,0,0
947,-32.3125,-51,17.6875,-0.93,-3.08,8.35,0,0,0
948,-26,-50.75,21.6875,-0.72,-3.11,8.25,0,0,0
949,-17.0625,-43.875,27,-1.09,-3.47,8.86,0,0,0
950,-33.6875,-37.5625,19.3125,-0.92,-3.47,9.22,0,0,0
951,-47.6875,-38.4375,14.875,-0.49,-4.02,8.57,0,0,0
952,-44.8125,-34.875,11.875,-0.35,-4.52,7.39,0,0,0
953,-24.8125,-32.125,13.5,-0.14,-4.59,7.16,0,0,0
954,23.875,-27.5625,26.75,0.36,-3.81,7.61,0,0,0
955,49.4375,-23,43,0.2,-3.39,8.05,0,0,0
956,49.9375,-22.375,48.625,-0.3,-2.91,9.25,0,0,0
957,36.375,-19.125,55.625,-0.46,-2.45,9.98,0,0,0
958,22.5625,-22.875,57.3125,-0.51,-2.61,9.72,0,0,0
959,8.5,-31.5,61.5,-0.23,-2.95,8.79,0,0,0
960,36.3125,-34.75,72.8125,0.18,-3.18,7.54,0,0,0
961,64.3125,-33.875,82.5625,0,-3.33,7.46,0,0,0
962,120.75,-27.625,101.3125,-0.89,-2.63,9.09,0,0,0
963,131,-28.5,104.625,-0.8,-2.18,10.12,0,0,0
964,116.375,-31.125,100,-0.71,-2.11,10.44,0,0,0
965,67.9375,-32.625,82.75,-0.69,-2,10.31,0,0,0
966,29,-25,65.75,0,-2.07,9.55,0,0,0
967,22,-18.125,62.3125,0.26,-2.59,9.25,0,0,0
968,19.6875,-4,70.25,-0.01,-1.98,8.53,0,0,0
969,27.25,4.375,76.375,-0.19,-2.23,8.73,0,0,0
970,30.8125,8.0625,79.1875,0.16,-2.21,8.67,0,0,0
971,44.375,6.5,81.4375,-0.02,-2.14,7.96,0,0,0
972,75.3125,2.9375,77.125,-0.06,-1.85,8.03,0,0,0
973,88,4.9375,75.3125,0.34,-0.41,9.52,0,0,0
974,90.5,17.25,80.8125,0,-0.1,10,0,0,0
975,84.25,22.0625,86.5,-0.17,-0.11,9.88,0,0,0
976,74.25,14.4375,95.25,-0.69,-0.51,9.38,0,0,0
977,77.6875,-5.875,93.125,-0.69,0.19,9.87,0,0,0
978,80.75,-14.75,88.875,-0.72,0.21,10.29,0,0,0
979,73.875,-23.4375,80.0625,-1.01,0.16,11.2,0,0,0
980,58.875,-26,73.9375,-1.11,-0.08,11.1,0,0,0
981,14.5,-44.4375,56.75,-1.09,-0.15,10.61,0,0,0
982,-4.8125,-51.4375,45.6875,-0.52,-0.19,10.47,0,0,0
983,-31.4375,-53.3125,28.9375,-0.16,-0.33,9.86,0,0,0
984,-34.5625,-49.125,21.9375,0.11,-0.46,8.47,0,0,0
985,-26.875,-49.625,21.625,0.28,-0.24,8.32,0,0,0
986,2.0625,-46.6875,28.6875,0.77,0.1,8.2,0,0,0
987,19.125,-42.0625,36.5,1.39,0.8,8.49,0,0,0
988,45.5,-33.75,57.8125,0.91,0.87,8.66,0,0,0
989,55.25,-37.6875,71.375,0.79,0.69,8.83,0,0,0
990,51.6875,-43.5625,70.875,0.41,0.18,9.27,0,0,0
991,26.375,-53.75,52.75,1.41,0.63,9.92,0,0,0
992,8.3125,-51,38.125,1.79,0.99,9.96,0,0,0
993,-36.875,-33.4375,12.0625,2.01,0.77,9.41,0,0,0
994,-74.4375,-14.375,-3.0625,1.98,0.16,8.6,0,0,0
995,-84.75,-7.6875,-6.5,1.69,-0.17,8.4,0,0,0
996,-85.9375,2.6875,-13.4375,1.75,-0.86,8.08,0,0,0
997,-56.25,7.75,-18.0625,1.69,-1.3,8,0,0,0
998,-33.1875,9.3125,-18.1875,1.53,-1.62,8.08,0,0,0
999,11.1875,11.125,-21.125,0.99,-1.56,8.4,0,0,0
1000,27.5,10.1875,-38.3125,1.27,-0.8,9.04,0,0,0
1001,22.3125,10,-50.1875,1.77,-0.44,9.01,0,0,0
1002,3.5,22,-65.5,1.87,0.55,9.58,0,0,0
1003,-12.375,29.4375,-63.75,1.54,0.66,9.49,0,0,0
1004,-15.0625,28.4375,-58.8125,1.04,0.19,8.98,0,0,0
1005,-16.125,19.1875,-48.625,0.62,-0.45,8.66,0,0,0
1006,-17.25,12.6875,-47.75,0.79,-0.46,8.34,0,0,0
1007,-12.875,10.75,-55.3125,1.27,-1.01,7.84,0,0,0
1008,6,44.125,-65.4375,1.3,-1.04,7.64,0,0,0
1009,19.75,68.75,-70.0625,0.75,-0.65,8.38,0,0,0
1010,24.0625,101.25,-80.9375,0.5,-0.24,9.44,0,0,0
1011,8.875,105.25,-85.1875,-0.43,0.17,10.93,0,0,0
1012,-32.125,88,-95.125,-0.59,-0.02,10.76,0,0,0
1013,-45.625,77.3125,-98.25,-0.66,-0.16,10.4,0,0,0
1014,-39.75,60.6875,-98.3125,-0.77,-0.43,9.16,0,0,0
1015,-1.875,44.25,-89.9375,-1.4,-0.93,8.96,0,0,0
1016,18.875,37.8125,-84.875,-1.28,-0.62,9.3,0,0,0
1017,41.4375,31.1875,-81.5625,-0.95,0.3,10.27,0,0,0
1018,37.5,29.75,-80.9375,-0.46,1.38,10.62,0,0,0
1019,15.625,20.5625,-73.5625,-0.66,1.31,10.25,0,0,0
1020,5.625,9.5625,-60.0625,-0.84,0.93,9.96,0,0,0
1021,8.5,4.4375,-53.9375,-1.31,-0.11,8.74,0,0,0
1022,27.875,4.5,-52.25,-1.16,-0.08,8.81,0,0,0
1023,36.3125,10.6875,-56.875,-1.21,0.09,9.42,0,0,0
1024,28.625,26.0625,-70,-1.07,1.25,10.22,0,0,0
1025,4.875,15.9375,-78.5625,-1.35,1.02,9.89,0,0,0
1026,-0.125,10,-77.6875,-1.47,0.81,9.71,0,0,0
1027,1.1875,0.0625,-66.75,-1.45,-0.11,8.72,0,0,0
1028,17.6875,3,-58.875,-1.36,0.07,8.95,0,0,0
1029,22.75,10.8125,-58.8125,-1.73,-0.02,9.79,0,0,0
1030,12.0625,22.6875,-69.5625,-2.05,0,10.3,0,0,0
1031,-11.125,15.8125,-89.375,-1.81,0.29,10.1,0,0,0
1032,-17.6875,10.0625,-95.5625,-1.37,0.27,9.48,0,0,0
1033,-13.375,5.0625,-92.875,-1.72,-0.45,9.39,0,0,0
1034,-4.25,1.4375,-80.4375,-2,-0.75,9.31,0,0,0
1035,0.125,-1.75,-78.4375,-2.03,-0.77,9.22,0,0,0
1036,6.25,-0.3125,-82.875,-1.7,0.27,9.72,0,0,0
1037,2.625,-0.9375,-84.9375,-1.48,0.58,9.67,0,0,0
1038,-10.125,-8,-79,-1.02,0.87,9.15,0,0,0
1039,-13.3125,-8,-60.625,-1.13,0.09,8.65,0,0,0
1040,-8.625,-4.5,-49.4375,-1.13,-0.69,8.15,0,0,0
1041,15.25,4.1875,-38.6875,-1.59,-0.98,8.31,0,0,0
1042,26.625,7.5,-40.625,-1.81,-0.79,8.64,0,0,0
1043,27.875,13.375,-47.75,-1.5,1.04,10.56,0,0,0
1044,17.1875,13.0625,-48.75,-1.37,1.49,10.8,0,0,0
1045,-10.125,-5.875,-43.9375,-2.15,0.35,10.53,0,0,0
1046,-24,-26.1875,-32.9375,-2.32,-0.7,9.77,0,0,0
1047,-23.25,-33.375,-32,-1.71,-0.75,9.12,0,0,0
1048,-16.0625,-35.9375,-33.375,-1.05,-0.42,8.69,0,0,0
1049,-9.1875,-28.5,-32.5625,-0.14,0.36,8.73,0,0,0
1050,2.1875,-16.375,-18.875,0.14,0.38,9.37,0,0,0
1051,12.0625,-7.9375,14.1875,0.36,0.52,9.54,0,0,0
1052,15,-15.4375,29.4375,-1.33,0.41,9.96,0,0,0
1053,9.3125,-46.25,45.8125,-1.5,0.01,9.95,0,0,0
1054,2.5625,-60.6875,47.125,-1.29,0.05,9.59,0,0,0
1055,-5.4375,-74.5,49.6875,-0.95,0.13,9.39,0,0,0
1056,-11.5,-71.6875,60.5,-0.28,0.55,9.13,0,0,0
1057,-14.375,-68.8125,68.8125,-0.41,0.45,8.97,0,0,0
1058,-22.5,-59.6875,77.25,-1.33,-0.21,9.54,0,0,0
1059,-55.1875,-55.8125,60.375,-1.05,-0.19,10.07,0,0,0
1060,-80.1875,-54.25,50.75,0.18,-0.06,9.91,0,0,0
1061,-118.25,-38.625,40.625,0.35,-0.28,9.16,0,0,0
1062,-119.125,-34,45,0.3,-0.69,8.63,0,0,0
1063,-102.875,-36.125,50.875,0.12,-2.35,7.1,0,0,0
1064,-52.6875,-38.0625,54.3125,0.11,-2.9,8.08,0,0,0
1065,-30,-30,44.125,0.12,-2.7,8.65,0,0,0
1066,-34.75,-24.4375,37.3125,0.72,-2.48,9.23,0,0,0
1067,-53.8125,-12.5,28.4375,0.89,-2.51,8.55,0,0,0
1068,-58.8125,-9.625,27.4375,0.91,-2.59,8.08,0,0,0
1069,-46.75,-0.3125,30.625,1.19,-2.92,7.25,0,0,0
1070,-34.6875,4.875,34.4375,1.26,-3,7.19,0,0,0
1071,-7.8125,21.875,42.25,1.03,-2.92,8.2,0,0,0
1072,1.8125,32.4375,45.9375,0.7,-3.02,8.44,0,0,0
1073,13.6875,43.9375,49.5,0,-2.95,8.71,0,0,0
1074,18.0625,37.5625,46.3125,-0.28,-2.55,9.5,0,0,0
1075,16,33.8125,45.1875,-0.31,-2.52,9.62,0,0,0
1076,8.1875,26.125,43.125,-0.65,-3.31,9.19,0,0,0
1077,7.8125,27.125,39.8125,-0.67,-3.6,8.89,0,0,0
1078,19.875,35,22.4375,-0.63,-3.8,8.57,0,0,0
1079,43.125,40.9375,8,-0.56,-3.59,8.82,0,0,0
1080,55.125,43.4375,5.6875,-0.8,-3.08,9.52,0,0,0
1081,65.3125,31.25,1.3125,-1.03,-2.23,10.03,0,0,0
1082,65.3125,22.6875,-1.5,-1,-2.11,9.91,0,0,0
1083,64.375,14.75,-5.4375,-0.87,-2.04,9.16,0,0,0
1084,67,25.875,-16,-1.07,-1.78,9.92,0,0,0
1085,63.75,37.8125,-21.5625,-1.03,-1.22,10.55,0,0,0
1086,44.1875,34.5,-28.75,-1.44,-1.08,10.54,0,0,0
1087,33.5,16.5,-35.3125,-1.08,-0.67,10.28,0,0,0
1088,29.25,5.9375,-34.8125,-1.02,-0.62,9.85,0,0,0
1089,33.875,-1.625,-31,-0.37,-0.76,8.43,0,0,0
1090,59.875,4.5,-23.875,-0.51,-0.84,8.03,0,0,0
1091,76.3125,12.1875,-20.1875,-0.68,-0.71,8.27,0,0,0
1092,94.4375,23,-16.0625,-1.12,0.02,9.57,0,0,0
1093,82.625,19.0625,-18.875,-1.3,0.19,10.02,0,0,0
1094,68.5625,14.625,-22.75,-1.36,0.54,10.37,0,0,0
1095,38.5625,8.0625,-29.875,-1.12,0.43,9.99,0,0,0
1096,25.625,10.75,-31.6875,-1.16,0.17,9.49,0,0,0
1097,26.375,11.125,-31.1875,-1.24,0.27,9.26,0,0,0
1098,36.3125,5.3125,-29.0625,-1.46,0.44,9.28,0,0,0
1099,42.375,2.5625,-27,-1.41,0.56,9.39,0,0,0
1100,43.75,-3.125,-24.5625,-1.49,0.52,9.66,0,0,0
1101,34.8125,-1.625,-28.1875,-1.69,0.41,9.92,0,0,0
1102,26.625,-1.625,-32.0625,-1.88,0.37,10.03,0,0,0
1103,10.4375,-6.0625,-44.4375,-1.71,0.52,9.87,0,0,0
1104,6.125,-9.4375,-48.8125,-1.58,0.52,9.64,0,0,0
1105,11.4375,-15.375,-50.0625,-1.4,0.79,9.19,0,0,0
1106,18,-17.0625,-48.5,-1.4,0.96,9.39,0,0,0
1107,17.6875,-21.625,-44.625,-1.71,1.42,10.18,0,0,0
1108,-7.8125,-30.8125,-48.8125,-1.06,1.44,10.18,0,0,0
1109,-22.0625,-33.9375,-49.9375,-1.3,1.06,9.37,0,0,0
1110,-29.5,-32.625,-51.8125,-1.1,1.06,8.76,0,0,0
1111,-26.1875,-32.5,-51.625,-1.05,1.07,8.68,0,0,0
1112,-21.1875,-28.5625,-45.9375,-0.82,1.73,9.47,0,0,0
1113,-39.9375,-21.9375,-37.3125,-0.9,2.11,9.79,0,0,0
1114,-60.375,-20.375,-34.125,-0.87,2.42,10.52,0,0,0
1115,-105.875,-23.9375,-27.5625,-0.11,1.8,9.81,0,0,0
1116,-115.3125,-29.3125,-11.125,-0.06,0.53,8.4,0,0,0
1117,-95.4375,-29.25,-1.5625,-0.14,-0.5,7.48,0,0,0
1118,-38.5625,-29.625,13.1875,-0.59,-0.75,8.5,0,0,0
1119,-17.625,-31.1875,17.375,-0.61,-0.43,9.27,0,0,0
1120,-15.625,-32.625,20.1875,-0.7,0.15,10.54,0,0,0
1121,-53.125,-36.6875,16.75,-0.35,-0.02,10.19,0,0,0
1122,-72.125,-38.0625,14.6875,-0.07,-0.32,9.55,0,0,0
1123,-81,-33.875,16.125,-0.01,-1.37,8.42,0,0,0
1124,-63.5625,-28.5,18.875,-0.02,-1.4,8.76,0,0,0
1125,-56.375,-28.0625,20.25,0.05,-1.41,8.78,0,0,0
1126,-49.25,-25.625,23.3125,0.08,-1.28,9.07,0,0,0
1127,-53.0625,-24.75,26.4375,0.56,-1.33,8.75,0,0,0
1128,-56.0625,-23.5,29.75,0.66,-1.36,8.57,0,0,0
1129,-55.3125,-16.125,36.6875,0.53,-2.48,7.49,0,0,0
1130,-32.3125,-4.125,40.625,0.42,-3.3,7.19,0,0,0
1131,-15.5,1.75,40.1875,-0.1,-3.47,7.94,0,0,0
1132,6.8125,10.8125,31.375,-0.2,-3.17,8.61,0,0,0
1133,10.1875,16.875,19.8125,-0.16,-3.14,8.81,0,0,0
1134,8.9375,21.5,14.8125,-0.22,-2.92,9.13,0,0,0
1135,3.9375,24.4375,7.125,0.15,-2.94,8.54,0,0,0
1136,4.25,25.5,5.3125,0.35,-3.1,8.55,0,0,0
1137,14.625,30.625,5.9375,0,-3.58,8.01,0,0,0
1138,43.8125,40.125,2.875,-0.25,-3.56,7.73,0,0,0
1139,57.125,43.625,-0.5625,-0.39,-3.32,8.13,0,0,0
1140,73.4375,60.75,-9.0625,-0.51,-3.15,8.5,0,0,0
1141,73.9375,68.875,-13.1875,-1.12,-1.86,10.37,0,0,0
1142,55.875,58.9375,-18.625,-1.6,-1.19,11.3,0,0,0
1143,42.625,47.75,-20.6875,-1.69,-0.92,11.29,0,0,0
1144,15.0625,22.8125,-25.875,-1.38,-0.96,10.68,0,0,0
1145,7.9375,6.5625,-24.375,-0.65,-1.28,8.56,0,0,0
1146,19.75,5.125,-20.125,-0.69,-1.32,8.13,0,0,0
1147,61.3125,12.1875,-7.8125,-0.62,-0.67,8.38,0,0,0
1148,77.875,15.25,-0.9375,-0.81,-0.48,8.86,0,0,0
1149,84.8125,18.75,5.875,-1.58,-0.02,10.59,0,0,0
1150,53.1875,11.8125,-0.5625,-1.73,-0.18,10.81,0,0,0
1151,35.25,10.0625,-6.625,-1.62,-0.4,10.38,0,0,0
1152,15.5,7.25,-16.75,-1.18,-0.68,9.24,0,0,0
1153,18.25,6.8125,-18.1875,-1.13,-0.72,8.85,0,0,0
1154,46.3125,5.5,-14.625,-0.99,-0.47,8.43,0,0,0
1155,76.375,4.125,-6.375,-0.96,-0.15,9.01,0,0,0
1156,81.875,5.1875,-3.5625,-1.35,0.26,9.71,0,0,0
1157,69.125,8.125,-8.125,-1.56,0.42,10.14,0,0,0
1158,43.3125,11.1875,-17.3125,-1.63,0.64,9.86,0,0,0
1159,33.125,9.75,-21.0625,-1.59,0.65,9.53,0,0,0
1160,35.4375,4.1875,-21.8125,-0.7,1,9.12,0,0,0
1161,51.125,1.875,-8.3125,-0.89,1.21,9.27,0,0,0
1162,55.375,0.5625,-1.9375,-1.56,1.31,9.63,0,0,0
1163,49.625,-8.6875,1.25,-1.9,1.44,10.35,0,0,0
1164,24.625,-15.8125,-2.9375,-1.83,1.61,10.46,0,0,0
1165,6.6875,-17,-6.125,-1.83,1.7,10.66,0,0,0
1166,-26.125,-22,-12.125,-1.75,1.55,10.26,0,0,0
1167,-35.25,-26.5625,-13.4375,-1.47,1.28,9.73,0,0,0
1168,-35.625,-35.6875,-10,-1.1,1.22,9.14,0,0,0
1169,-21.875,-43.625,-0.9375,-0.77,1.43,9.03,0,0,0
1170,-15.9375,-44.0625,4,-0.72,1.69,9.35,0,0,0
1171,-23.4375,-45.0625,14,-0.74,1.87,9.73,0,0,0
1172,-36.125,-46.875,17.1875,-0.82,1.61,9.85,0,0,0
1173,-62.375,-50.25,20.0625,-0.51,0.62,8.82,0,0,0
1174,-68.75,-50.375,20.0625,-0.43,0.36,8.75,0,0,0
1175,-59.6875,-36.75,19.75,-0.29,0.52,8.64,0,0,0
1176,-50.875,-37.9375,23.9375,-0.17,0.47,8.79,0,0,0
1177,-46.6875,-37.8125,26.8125,-0.04,0.44,8.83,0,0,0
1178,-45.875,-37.1875,31.6875,0.03,0.12,9,0,0,0
1179,-49.25,-33.75,32.0625,0.12,0,9.14,0,0,0
1180,-61.3125,-22.6875,29.8125,-0.04,-0.03,9.55,0,0,0
1181,-80.625,-21,25.5625,-0.05,-0.18,9.46,0,0,0
1182,-88.6875,-21.5,24.625,0.21,-0.59,8.92,0,0,0
1183,-89.1875,-17.0625,22.6875,0.35,-1.26,8.16,0,0,0
1184,-83,-12.0625,21.1875,0.45,-1.31,7.98,0,0,0
1185,-69.125,-5.5,18.8125,0.97,-1.84,7.72,0,0,0
1186,-46.25,9.375,21.6875,0.55,-2.54,7.4,0,0,0
1187,-28.9375,15.5,22.25,0.3,-2.56,7.71,0,0,0
1188,0.625,20.1875,18,0.3,-1.96,8.77,0,0,0
1189,3.25,22.25,16.4375,0.52,-1.09,9.08,0,0,0
1190,-0.6875,21.3125,18,0.63,-0.94,8.91,0,0,0
1191,-2.875,20.875,27.375,1,-1.09,8.67,0,0,0
1192,11.9375,25.75,45.5625,0.8,-1.25,8.71,0,0,0
1193,22.1875,25.375,53.375,0,-1.74,9.03,0,0,0
1194,33.375,15.5,56.625,-0.63,-1.81,9.85,0,0,0
1195,30.375,10.3125,51.0625,-0.75,-1.68,10.19,0,0,0
1196,4.5625,7.8125,33.6875,-0.03,-0.9,10.43,0,0,0
1197,-28.75,9.25,23.375,0.75,-0.73,9.86,0,0,0
1198,-38.625,8.9375,24,0.83,-1.36,8.64,0,0,0
1199,-20.8125,12.6875,32.75,0.53,-1.96,7.98,0,0,0
1200,0.75,15.6875,35.875,0.5,-2.05,8.21,0,0,0
1201,33.6875,22.5625,38.5625,-0.12,-1.59,9.99,0,0,0
1202,36.25,25.5625,37.5625,-0.46,-1.46,10.55,0,0,0
1203,19.5625,24.875,29.4375,-0.78,-1.69,10.99,0,0,0
1204,2.5625,17.375,19.875,-0.9,-2.3,10.59,0,0,0
1205,0.875,10.5625,16.0625,-1.1,-2.71,9.87,0,0,0
1206,13.4375,-3.125,8,-1.12,-2.62,9.4,0,0,0
1207,21.3125,-7.125,4.6875,-1.02,-2.2,9.56,0,0,0
1208,27,-2.75,1.75,-1,-1.87,9.88,0,0,0
1209,16.625,0.5625,1.75,-1.08,-1.99,9.87,0,0,0
1210,12.875,0.6875,0.25,-1.34,-2.4,9.27,0,0,0
1211,12.3125,-0.9375,-5.125,-1.58,-2.35,9.01,0,0,0
1212,13,-2.1875,-8.5625,-1.38,-2.2,8.73,0,0,0
1213,16.6875,-2.0625,-12.875,-1.42,-2.27,8.49,0,0,0
1214,24.125,1.875,-14.625,-1.31,-2.09,8.56,0,0,0
1215,26.0625,2.9375,-14.875,-1.48,-2.03,8.73,0,0,0
1216,23.375,6.625,-16.4375,-1.58,-1.55,9.24,0,0,0
1217,8.4375,7.375,-18.625,-1.5,-1.51,9.3,0,0,0
1218,1.4375,7.25,-18.9375,-1.52,-1.79,8.83,0,0,0
1219,-0.5,6.5625,-21.375,-1.35,-2,8.68,0,0,0
1220,2.5625,5.5,-21.875,-1.22,-2.09,8.53,0,0,0
1221,17.5625,3.75,-21.75,-1.44,-1.8,8.89,0,0,0
1222,24.375,3.875,-24.5,-1.31,-1.27,9.48,0,0,0
1223,19.9375,3.375,-25.4375,-1.21,-0.9,9.73,0,0,0
1224,5.1875,3.1875,-28,-1.07,-0.75,9.69,0,0,0
1225,-1.625,2.3125,-28.6875,-0.88,-0.8,9.27,0,0,0
1226,-4.625,0.375,-27.6875,-0.88,-0.88,9.06,0,0,0
1227,-1.1875,0.25,-27,-0.94,-0.89,9.05,0,0,0
1228,6.625,2.4375,-26.4375,-0.87,-0.48,9.24,0,0,0
1229,10.3125,3.6875,-23.75,-0.79,-0.46,9.39,0,0,0
1230,11.625,5.25,-21.4375,-0.89,-0.27,9.63,0,0,0
1231,11.25,6,-17.1875,-0.87,-0.07,9.86,0,0,0
1232,8.6875,4.9375,-15.3125,-0.86,0.03,9.97,0,0,0
1233,-0.1875,2.375,-11.4375,-0.72,0.02,10,0,0,0
1234,-7.8125,1.5,-6.5625,-0.67,-0.05,9.88,0,0,0
1235,-6.75,1.375,-5.375,-1.12,-0.67,9.74,0,0,0
1236,2.375,0.3125,-3.6875,-0.97,-0.67,9.96,0,0,0
1237,6.3125,-1.75,-2.5,-1.05,-0.67,10.01,0,0,0
1238,7.875,-9.25,-1.6875,-0.94,-0.57,9.86,0,0,0
1239,2.4375,-11,-4.375,-0.78,-0.56,9.72,0,0,0
1240,-2.4375,-9.75,-5.375,-0.57,-0.62,9.48,0,0,0
1241,-6.5625,-2.9375,-7.75,-0.61,-0.94,9.25,0,0,0
1242,-4.4375,-0.5,-8,-0.61,-0.99,9.18,0,0,0
1243,7.875,-1.875,-8.75,-0.66,-0.78,9.15,0,0,0
1244,22.25,-7.6875,-7,-0.56,-0.66,9.21,0,0,0
1245,25.625,-8,-5.125,-0.31,-0.17,9.38,0,0,0
1246,20.6875,-4.625,-2.5625,-0.25,-0.07,9.51,0,0,0
1247,14.3125,-2.5,-2.625,-0.3,-0.14,9.77,0,0,0
1248,0.5,0.5,-5.5,-0.51,-0.67,9.48,0,0,0
1249,-3.125,-1.25,-8.3125,-0.48,-0.77,9.3,0,0,0
1250,1.25,-3.25,-14.1875,0.05,-0.36,9.03,0,0,0
1251,10,-2.25,-13.625,0.14,-0.12,9.04,0,0,0
1252,13.125,-2.25,-11.5,0.4,0.5,8.93,0,0,0
1253,16.5625,-2.6875,-5.0625,0.43,0.59,8.88,0,0,0
1254,17.1875,-2.8125,-1.1875,0.49,0.5,8.83,0,0,0
1255,18.3125,3.875,4.8125,0.22,0.25,9.04,0,0,0
1256,16.0625,9.5625,4.5625,-0.02,0.08,9.19,0,0,0
1257,12.25,11.25,2.5625,-0.3,0,9.58,0,0,0
1258,2.5,12.125,-3.0625,-0.39,0,9.71,0,0,0
1259,-0.9375,12.25,-4.9375,-0.35,0.14,9.73,0,0,0
1260,-7.125,7.1875,-3.75,-0.39,-0.03,9.58,0,0,0
1261,-5,1,0.125,-0.46,-0.14,9.39,0,0,0
1262,-0.5,0.1875,1.25,-0.64,-0.52,9.28,0,0,0
1263,7.0625,0.5625,1.5625,-0.99,-0.5,9.67,0,0,0
1264,7.5625,0.6875,0,-1.18,-0.38,9.74,0,0,0
1265,2.875,-2.375,-4.1875,-1.17,-0.24,9.7,0,0,0
1266,-2.625,-6.4375,-6.4375,-1,-0.18,9.18,0,0,0
1267,-2.9375,-7.3125,-6.3125,-0.88,-0.17,9.14,0,0,0
1268,1.875,-4.625,-4.25,-1.05,-0.34,9.06,0,0,0
1269,4.875,-3,-3.0625,-1.09,-0.34,9.16,0,0,0
1270,8.25,1.375,-2.8125,-1.31,-0.41,9.77,0,0,0
1271,6.0625,2.875,-3.75,-1.44,-0.39,9.8,0,0,0
1272,-2.375,-2.5625,-7.875,-1.51,-0.45,9.57,0,0,0
1273,-2.25,-5.875,-11.4375,-1.32,-0.4,9.28,0,0,0
1274,0.625,-5.75,-11.125,-1.14,-0.26,9.09,0,0,0
1275,8.25,-4.75,-8.5,-1.2,-0.03,9.07,0,0,0
1276,10.5625,-3.9375,-7.8125,-1.12,0.19,9.2,0,0,0
1277,8.8125,-3.25,-4.5,-1.01,0.36,9.26,0,0,0
1278,5.4375,-1.9375,-3.125,-1.03,0.34,9.2,0,0,0
1279,-1.4375,-1.875,-1.8125,-1.02,0.18,9.08,0,0,0
1280,-3.4375,2.0625,-0.4375,-1.01,-0.02,9.1,0,0,0
1281,-2.25,4.1875,1.125,-1.2,-0.16,9.12,0,0,0
1282,4.4375,5.5,1.4375,-1.3,-0.12,9.48,0,0,0
1283,4.9375,1.3125,1.1875,-1.21,-0.01,9.56,0,0,0
1284,3.4375,-0.0625,1.4375,-1.17,0.21,9.66,0,0,0
1285,-3.5625,-1.25,3.75,-1.2,0.01,9.52,0,0,0
1286,-6.5625,-1,4.625,-1.24,-0.22,9.33,0,0,0
1287,-7.125,0.125,4.25,-1.28,-0.4,9.22,0,0,0
1288,-1.875,-1.1875,3.375,-1.27,-0.39,9.2,0,0,0
1289,0.8125,-2.25,3.3125,-1.01,-0.09,9.4,0,0,0
1290,1.6875,-3.6875,5.5,-0.97,0,9.38,0,0,0
1291,0.8125,-4.125,6.625,-0.85,0.09,9.26,0,0,0
1292,-3.1875,-2.25,7.875,-0.79,0.11,9.26,0,0,0
1293,-6.625,-1.875,8.25,-0.85,0.02,9.21,0,0,0
1294,-11.4375,-0.5,7.375,-0.79,-0.15,9.11,0,0,0
1295,-11.375,0.75,7.75,-0.71,-0.27,8.95,0,0,0
1296,-2.0625,2.75,8.6875,-0.69,-0.35,8.98,0,0,0
1297,9.0625,2,9.5,-0.67,-0.32,9.02,0,0,0
1298,11.4375,2.875,10.25,-0.71,-0.1,9.46,0,0,0
1299,6.1875,3.75,9.875,-0.75,0,9.7,0,0,0
1300,0.5625,5.5625,8.4375,-0.67,-0.03,9.76,0,0,0
1301,-11,7.0625,7.3125,-0.69,-0.17,9.58,0,0,0
1302,-10.6875,3.4375,8.8125,-0.78,-0.49,9.33,0,0,0
1303,-5.4375,0.9375,9.8125,-0.77,-0.57,9.28,0,0,0
1304,6.5,-4.5,10.6875,-0.78,-0.45,9.4,0,0,0
1305,11.25,-4.5,9.8125,-0.73,-0.22,9.64,0,0,0
1306,7.5,-3.8125,9.1875,-0.73,-0.14,9.7,0,0,0
1307,-7.6875,-3.4375,7.5,-0.58,-0.16,9.52,0,0,0
1308,-15.6875,-3,7,-0.57,-0.32,9.36,0,0,0
1309,-21.9375,-2.0625,5.75,-0.72,-0.98,8.57,0,0,0
1310,-5.125,2.25,2.25,-0.66,-0.96,8.64,0,0,0
1311,5.6875,4.4375,1.125,-0.72,-0.54,9.24,0,0,0
1312,14.4375,3.3125,0.5,-0.63,-0.06,9.77,0,0,0
1313,11.375,2.125,0.75,-0.62,0.15,9.86,0,0,0
1314,-2,-0.6875,1.875,-0.59,0.03,9.64,0,0,0
1315,-6.875,-0.6875,2.125,-0.6,-0.17,9.41,0,0,0
1316,-8.375,1.75,1.4375,-0.68,-0.52,9.22,0,0,0
1317,-1.8125,4.125,-1,-0.72,-0.52,9.3,0,0,0
1318,1.125,2.6875,-1.25,-0.59,-0.16,9.51,0,0,0
1319,6.0625,-1.4375,1.5625,-0.55,0.06,9.54,0,0,0
1320,7.0625,-2.75,3.6875,-0.62,0.11,9.59,0,0,0
1321,3.125,-4.5,7.3125,-0.64,-0.1,9.48,0,0,0
1322,0.0625,-3.4375,7.75,-0.74,-0.22,9.5,0,0,0
1323,-4.8125,0.9375,5.5,-0.95,-0.39,9.41,0,0,0
1324,-6.4375,-1.5625,2.375,-0.74,-0.27,9.36,0,0,0
1325,-5.5625,-3.5,2.25,-0.65,-0.21,9.28,0,0,0
1326,-2.375,-8.1875,5.5,-0.59,-0.26,9.16,0,0,0
1327,0,-7.75,9.0625,-0.59,-0.23,9.13,0,0,0
1328,-1.1875,-6.875,9.375,-0.52,-0.33,9.08,0,0,0
1329,-3.3125,-1.75,8,-0.57,-0.41,9.06,0,0,0
1330,-3.5,0.4375,7,-0.6,-0.42,9.15,0,0,0
1331,-3.625,1.1875,5.3125,-0.55,-0.37,9.27,0,0,0
1332,-3.0625,1.375,4.75,-0.49,-0.27,9.27,0,0,0
1333,-3.9375,0.875,3.9375,-0.34,-0.27,9.44,0,0,0
1334,-4.9375,2.125,4.375,-0.41,-0.25,9.5,0,0,0
1335,-7.375,1,5.1875,-0.45,-0.39,9.33,0,0,0
1336,-5,1.1875,5.125,-0.37,-0.58,9.16,0,0,0
1337,-2.25,1.9375,4.75,-0.39,-0.65,9.21,0,0,0
1338,2.5625,3.75,2.875,-0.31,-0.68,9.22,0,0,0
1339,3.3125,4.8125,1.875,-0.25,-0.61,9.53,0,0,0
1340,0.9375,5.9375,0.125,-0.25,-0.64,9.83,0,0,0
1341,-1.4375,5.875,-1.0625,-0.47,-0.75,9.76,0,0,0
1342,-5.125,1.4375,-5.25,-0.39,-0.8,9.51,0,0,0
1343,-1.4375,-1.5,-7.6875,-0.23,-0.65,9.16,0,0,0
1344,3.4375,-0.9375,-7.5625,-0.21,-0.51,9.18,0,0,0
1345,8.8125,0.75,-6.25,-0.3,-0.21,9.68,0,0,0
1346,3.25,0.875,-4.3125,-0.48,-0.24,9.7,0,0,0
1347,-0.1875,0.0625,-5.0625,-0.37,-0.37,9.5,0,0,0
1348,-5.5,-1.3125,-5.9375,-0.52,-0.46,9.43,0,0,0
1349,-6.125,-1.3125,-5.6875,-0.58,-0.48,9.37,0,0,0
1350,-4.8125,-2.1875,-7.4375,-0.33,-0.41,9.41,0,0,0
1351,-3.1875,-1.375,-5.4375,-0.38,-0.52,9.36,0,0,0
1352,-1.6875,-1.9375,-5.3125,-0.67,-0.63,9.32,0,0,0
1353,-0.375,-4.1875,-6.3125,-0.6,-0.6,9.25,0,0,0
1354,3.1875,-3.6875,-8,-0.44,-0.38,9.45,0,0,0
1355,2.6875,-1.1875,-7,-0.74,-0.45,9.53,0,0,0
1356,1.125,-2.3125,-7.3125,-0.76,-0.43,9.5,0,0,0
1357,-1.8125,-4.9375,-8.5,-0.75,-0.59,9.37,0,0,0
1358,-2.125,-4.625,-9.25,-0.78,-0.54,9.3,0,0,0
1359,-0.375,-4.1875,-11.75,-0.65,-0.35,9.22,0,0,0
1360,3.125,-1.8125,-11.375,-0.6,-0.31,9.24,0,0,0
1361,5.125,0.3125,-9.8125,-0.76,-0.22,9.44,0,0,0
1362,4.75,-0.25,-7.125,-0.85,-0.31,9.48,0,0,0
1363,2.4375,-1.6875,-7.25,-0.91,-0.42,9.54,0,0,0
1364,-2.6875,-2.3125,-9.375,-0.82,-0.45,9.43,0,0,0
1365,-5.375,-3.5,-10.5,-0.8,-0.45,9.36,0,0,0
1366,-4.5,-4.375,-11,-0.55,-0.43,9.04,0,0,0
1367,-1.0625,-4.25,-9.6875,-0.49,-0.47,8.99,0,0,0
1368,9.625,-1.0625,-6.1875,-0.84,-0.44,9.41,0,0,0
1369,12.375,-0.1875,-5.6875,-0.94,-0.42,9.63,0,0,0
1370,5.0625,0.1875,-9.25,-0.81,-0.07,9.79,0,0,0
1371,-9.75,-0.9375,-12.5625,-0.58,-0.12,9.38,0,0,0
1372,-12.8125,-2.125,-12,-0.5,-0.21,9.08,0,0,0
1373,-3.625,-4.625,-6.4375,-0.44,-0.42,8.68,0,0,0
1374,6.1875,-4,-3.5625,-0.61,-0.43,8.84,0,0,0
1375,17.3125,-2.3125,-1.8125,-0.88,0.03,9.6,0,0,0
1376,6.8125,-0.375,-6.0625,-0.86,0.09,9.69,0,0,0
1377,-1.6875,1.75,-8.3125,-0.65,0.07,9.55,0,0,0
1378,-12.4375,5.6875,-9.625,-0.5,-0.03,9.28,0,0,0
1379,-12.625,5.5625,-8.5625,-0.53,-0.19,9.19,0,0,0
1380,-4.1875,2.75,-3.8125,-0.7,-0.44,9.36,0,0,0
1381,5.6875,0.625,-1.6875,-0.73,-0.46,9.44,0,0,0
1382,8.6875,-0.375,-1.5625,-0.86,-0.18,9.78,0,0,0
1383,8.1875,-2.375,-2.5625,-0.95,0.11,9.86,0,0,0
1384,0.375,-6.8125,-3.0625,-0.81,0.27,9.65,0,0,0
1385,-3.3125,-8.5,-2.3125,-0.74,0.24,9.25,0,0,0
1386,-5.6875,-7.4375,-0.5625,-0.58,0.28,8.84,0,0,0
1387,-4.5625,-4.875,0.5,-0.53,0.23,8.84,0,0,0
1388,1.25,1.9375,4.8125,-0.62,0.25,9.07,0,0,0
1389,7.5625,3.3125,9.375,-0.73,0.19,9.3,0,0,0
1390,9.875,2.0625,10.9375,-0.78,0.19,9.39,0,0,0
1391,8.0625,-1.375,11.875,-0.75,0.15,9.7,0,0,0
1392,3.625,-1.0625,10.625,-0.74,0.13,9.71,0,0,0
1393,-9.6875,-0.25,7.25,-0.61,-0.23,9.5,0,0,0
1394,-12.75,1.625,6.25,-0.64,-0.41,9.31,0,0,0
1395,-6.125,3,6.375,-0.65,-0.68,9.18,0,0,0
1396,10.125,-0.5625,7.8125,-0.68,-0.56,9.29,0,0,0
1397,14.625,-2.625,8.625,-0.74,-0.24,9.73,0,0,0
1398,10.375,-5.375,7.25,-0.71,-0.19,9.7,0,0,0
1399,4.25,-4.875,4.9375,-0.68,-0.08,9.61,0,0,0
1400,-9.5625,-2.9375,1.375,-0.42,-0.07,9.08,0,0,0
1401,-13.6875,-2.625,1.1875,-0.29,-0.19,8.8,0,0,0
1402,-6.125,1.1875,4.9375,-0.4,-0.36,8.68,0,0,0
1403,10.0625,3,9.625,-0.54,-0.37,9.06,0,0,0
1404,15,3.1875,10.9375,-0.63,-0.23,9.55,0,0,0
1405,11.4375,4.5,10.375,-0.77,-0.26,9.95,0,0,0
1406,-5.6875,4.75,6.4375,-0.71,-0.45,9.74,0,0,0
1407,-12.875,3.9375,4.125,-0.63,-0.52,9.57,0,0,0
1408,-14.375,0.9375,3.3125,-0.69,-0.58,9.16,0,0,0
1409,-0.9375,-4.6875,5.9375,-0.65,-0.51,9.17,0,0,0
1410,3.75,-7.5,7.9375,-0.71,-0.22,9.68,0,0,0
1411,-4.4375,-11.25,9.75,-0.66,-0.27,9.82,0,0,0
1412,-15,-11.625,8.75,-0.6,-0.46,9.69,0,0,0
1413,-31.625,-6.125,4.5625,-0.45,-0.91,8.97,0,0,0
1414,-32.3125,-2.9375,3,-0.46,-0.94,8.95,0,0,0
1415,-26.8125,-1.4375,4.1875,-0.51,-0.97,9.15,0,0,0
1416,-18.25,-6.625,7.375,-0.63,-1.01,9.25,0,0,0
1417,-15.375,-9.0625,7.9375,-0.6,-1.01,9.17,0,0,0
1418,-13.0625,-12.75,7.25,-0.44,-0.93,9.1,0,0,0
1419,-12.75,-9.75,6.875,-0.42,-0.84,9.14,0,0,0
1420,-20.0625,-5.375,5.9375,-0.44,-0.48,9.65,0,0,0
1421,-37.4375,-2.875,5.5,-0.45,-0.47,9.67,0,0,0
1422,-46.9375,-5,5.75,-0.32,-1.26,9,0,0,0
1423,-47,-6.5625,6.875,-0.23,-1.68,8.61,0,0,0
1424,-35.5625,-5.6875,7.625,-0.33,-2.1,8.37,0,0,0
1425,-9.5625,-4.4375,7.8125,-0.37,-1.56,9.37,0,0,0
1426,-5.75,-4.1875,7.0625,-0.4,-1.28,9.81,0,0,0
1427,-22.125,-2.625,3.75,-0.36,-1.01,9.98,0,0,0
1428,-46.5625,-4.4375,1.375,-0.13,-1.35,9.19,0,0,0
1429,-49.5,-5.8125,2.125,0.05,-1.91,8.41,0,0,0
1430,-31.5,-4.5,7.125,-0.05,-2.17,8.3,0,0,0
1431,-6.0625,0.8125,9.75,-0.41,-1.83,9.17,0,0,0
1432,-5.625,0.5,8.5,-0.44,-1.39,10.09,0,0,0
1433,-26.875,0.8125,3.75,-0.28,-1.19,9.8,0,0,0
1434,-40.4375,-0.6875,2.25,-0.17,-1.46,9.46,0,0,0
1435,-48,-3.1875,4.6875,0.04,-2.08,8.65,0,0,0
1436,-22,0,10.1875,-0.27,-2.66,8.61,0,0,0
1437,-4.5,2.3125,11.1875,-0.33,-2.55,9.1,0,0,0
1438,7.5625,1.75,9.25,-0.46,-2.03,10.03,0,0,0
1439,1.5625,1.25,6.8125,-0.45,-2.02,9.93,0,0,0
1440,-12.1875,1.8125,2.3125,-0.31,-2.28,9.4,0,0,0
1441,-14.375,2.5,1.625,-0.33,-2.4,9.37,0,0,0
1442,-7.9375,2.4375,2.25,-0.6,-2.38,9.53,0,0,0
1443,-3.6875,-3.9375,1.0625,-0.42,-2.43,9.42,0,0,0
1444,-4.0625,-7.25,0.3125,-0.36,-2.51,9.27,0,0,0
1445,0.375,-5.1875,-0.625,-0.26,-2.29,9.2,0,0,0
1446,1.6875,-3.9375,-0.9375,-0.25,-2.19,9.38,0,0,0
1447,-5,-0.8125,-1.25,-0.42,-2.16,9.62,0,0,0
1448,-12.375,-0.75,-2.875,-0.4,-2.39,9.4,0,0,0
1449,-18.4375,-1.3125,-5.5,0.08,-3.06,8.03,0,0,0
1450,10.625,-1.6875,-1.5,0.28,-3.39,7.5,0,0,0
1451,40.5625,0.0625,3.5,0.08,-3.22,7.65,0,0,0
1452,95.9375,1.5,12.1875,-0.67,-2.19,10,0,0,0
1453,91.1875,1.1875,7.375,-0.91,-1.17,11.4,0,0,0
1454,63.4375,-2.5,-0.875,-0.73,-1.11,11.13,0,0,0
1455,5.8125,-4.125,-15.75,-0.05,-1.54,9.38,0,0,0
1456,6.1875,2.125,-16.8125,0.22,-2.16,7.75,0,0,0
1457,31.9375,6.4375,-13,0.43,-2.1,7.09,0,0,0
1458,97.4375,11,2.0625,-0.05,-0.93,8.75,0,0,0
1459,117.5625,12,7.3125,-0.4,-0.66,9.5,0,0,0
1460,110.9375,12.9375,3.625,-0.99,-0.21,10.92,0,0,0
1461,66,16.6875,-13,-0.98,0.08,11.14,0,0,0
1462,39.5,16.6875,-21.0625,-0.85,0.24,10.98,0,0,0
1463,-0.0625,8.9375,-28.5,-0.59,0.2,9.86,0,0,0
1464,-9.125,1.25,-27.125,-0.46,0,9.27,0,0,0
1465,0.0625,-5.625,-20.25,-0.36,-0.33,8.38,0,0,0
1466,12.9375,-5.5,-15.8125,-0.35,-0.24,8.39,0,0,0
1467,37.1875,-2.9375,-9.5,-0.34,0.12,8.9,0,0,0
1468,45.25,2.75,-6.25,-0.47,0.39,9.15,0,0,0
1469,30.375,3,-6.6875,-0.54,0.54,9.5,0,0,0
1470,22.1875,4.25,-6.0625,-0.37,0.45,9.2,0,0,0
1471,16.9375,5.6875,-5.9375,-0.46,0.22,9.04,0,0,0
1472,20.875,6.4375,-3.9375,-0.6,-0.02,8.58,0,0,0
1473,30,7.8125,-3.25,-0.66,0.09,8.71,0,0,0
1474,42.625,8.4375,-2.9375,-0.73,0.57,9.44,0,0,0
1475,25.625,9.625,-7.3125,-0.75,0.79,9.72,0,0,0
1476,25.625,9.625,-7.3125,-0.65,0.67,9.37,0,0,0
1477,10.5625,10.75,-10.5625,-0.67,0.58,8.98,0,0,0
1478,17.9375,10.5,-11.125,-0.57,0.68,8.83,0,0,0
1479,17.9375,10.5,-11.125,-0.56,0.92,8.99,0,0,0
1480,26.125,8.0625,-8.0625,-0.55,1.3,9.3,0,0,0
1481,19.5625,9.6875,-4.375,-0.52,1.27,9.38,0,0,0
1482,19.5625,9.6875,-4.375,-0.64,1.15,9.29,0,0,0
1483,17.5,14.3125,-4.5,-0.82,1.12,9.19,0,0,0
1484,19.75,14.4375,-4.1875,-0.81,1.26,9.35,0,0,0
1485,20,12,-3,-0.88,1.6,9.81,0,0,0
1486,18.0625,9.1875,-1.5,-0.86,1.47,9.85,0,0,0
1487,10.875,3.25,1.5625,-1,0.94,9.35,0,0,0
1488,11.875,-3.0625,0.5,-0.95,0.82,9.14,0,0,0
1489,17,-4.0625,0.125,-0.84,0.74,8.75,0,0,0
1490,31.5625,1,-2.75,-0.88,1.4,9.14,0,0,0
1491,27.5625,2.6875,-4.5625,-0.82,1.61,9.3,0,0,0
1492,13.25,5.5625,-5.375,-0.81,1.58,9.05,0,0,0
1493,10,7.125,-5.3125,-0.81,1.49,8.9,0,0,0
1494,13.375,8.75,-3.6875,-0.83,1.43,8.76,0,0,0
1495,19.125,7.375,-1.875,-0.79,1.51,8.75,0,0,0
1496,20.5625,7.0625,-1.0625,-0.86,1.65,8.88,0,0,0
1497,16.375,7.125,-0.4375,-0.9,1.86,9.19,0,0,0
1498,11.25,6.25,-1.375,-0.98,1.81,9.16,0,0,0
1499,6.625,5.375,-3.8125,-0.69,1.45,8.65,0,0,0
1500,19.4375,9.375,-4,-0.62,1.32,8.33,0,0,0
1501,27.6875,12.125,-4.6875,-0.79,1.53,8.74,0,0,0
1502,28.125,14.125,-8.125,-0.81,2.05,9.37,0,0,0
1503,7.4375,16,-10.9375,-0.77,2.65,10.02,0,0,0
1504,-7.8125,13.0625,-10.125,-0.71,2.88,10.16,0,0,0
1505,-26.75,5.25,-6.375,-0.79,2.3,9.25,0,0,0
1506,-26.5,2.75,-5.3125,-0.78,2.19,9.07,0,0,0
1507,-20.6875,0.1875,-1.8125,-0.68,2.06,8.82,0,0,0
1508,-17.5625,6,0.9375,-0.45,2.08,8.64,0,0,0
1509,-16.8125,12.1875,2.5625,-0.46,2.01,8.68,0,0,0
1510,-14.3125,24.5,5.375,-0.94,1.78,9.31,0,0,0
1511,-16.125,24.125,6.0625,-1.21,1.79,9.57,0,0,0
1512,-23.6875,12.3125,5.9375,-1.38,1.6,9.59,0,0,0
1513,-25.4375,5.5,6.3125,-1.35,1.44,9.4,0,0,0
1514,-22,1.0625,7.875,-1.14,1.36,8.81,0,0,0
1515,-14.3125,6.0625,10.375,-1.15,1.27,8.68,0,0,0
1516,-9.0625,10.5625,11.375,-1.32,1.03,8.81,0,0,0
1517,-1.625,9.75,8.6875,-1.72,0.94,9.2,0,0,0
1518,-1.75,7.375,6.25,-1.71,1.13,9.41,0,0,0
1519,-14.0625,3.4375,2.8125,-1.6,1.42,9.67,0,0,0
1520,-32.625,3.8125,-0.4375,-1.52,1.5,9.53,0,0,0
1521,-37.125,6.75,-0.125,-1.22,0.98,8.94,0,0,0
1522,-23.625,13.6875,2,-1.61,0.5,8.82,0,0,0
1523,-11.3125,12.25,2.4375,-1.75,0.51,8.95,0,0,0
1524,3.625,0,3.0625,-1.83,0.94,9.76,0,0,0
1525,-4.125,-6.5625,2.625,-1.53,1.49,10.24,0,0,0
1526,-16.75,-9.125,2.25,-1.5,1.53,10.21,0,0,0
1527,-40.0625,-8.125,1.8125,-1.36,1.4,9.64,0,0,0
1528,-45.0625,-3.4375,4.375,-1.27,0.79,8.75,0,0,0
1529,-37.875,0.6875,6.625,-1.32,0.48,8.43,0,0,0
1530,-10.0625,5.3125,10.4375,-1.72,0.04,8.46,0,0,0
1531,11.5625,3.125,9.4375,-1.76,0.16,8.71,0,0,0
1532,11.3125,0.375,8.625,-1.86,0.81,9.66,0,0,0
1533,-7.375,-3.8125,6.3125,-1.76,1.14,9.63,0,0,0
1534,-18.375,-4.0625,5.25,-1.64,1.06,9.44,0,0,0
1535,-26.5625,3.6875,5.625,-1.52,0.32,8.57,0,0,0
1536,-20.75,7.5625,6.25,-1.72,0.02,8.32,0,0,0
1537,-0.6875,9.75,5.25,-1.99,0.14,8.88,0,0,0
1538,4.0625,7.3125,4.75,-2.02,0.38,9.21,0,0,0
1539,-2.875,2.4375,3.5625,-1.95,0.88,9.57,0,0,0
1540,-19.8125,1.5625,2.5625,-1.79,0.9,9.47,0,0,0
1541,-26.9375,1.625,3.3125,-1.74,0.63,9.05,0,0,0
1542,-26.875,5.3125,5.4375,-1.73,0.38,8.81,0,0,0
1543,-22.375,6.25,6.1875,-1.85,0.22,8.82,0,0,0
1544,-11.375,3.9375,8.125,-2.02,0.04,9.03,0,0,0
1545,-3.125,-1.8125,7.9375,-2.08,0.09,9.13,0,0,0
1546,-2.75,-4.5,7.25,-1.97,0.29,9.46,0,0,0
1547,-8.75,-6.3125,6.0625,-1.92,0.43,9.68,0,0,0
1548,-15.1875,-6.8125,5.9375,-1.87,0.52,9.77,0,0,0
1549,-26.8125,-10.375,6.5625,-1.87,0.27,9.49,0,0,0
1550,-23.3125,-14.875,8.4375,-1.81,-0.12,9.19,0,0,0
1551,-17.8125,-15.375,9.625,-1.82,0.01,9.31,0,0,0
1552,-19.3125,-18.875,10.0625,-1.88,0.49,10.52,0,0,0
1553,-46.5625,-24.5625,8.3125,-2.05,0.77,10.92,0,0,0
1554,-64.3125,-33.625,7.3125,-2.03,0.54,10.7,0,0,0
1555,-76.4375,-48.125,7.5,-1.35,-0.34,8.94,0,0,0
1556,-53.6875,-46.8125,14.125,-1.09,-0.57,8.63,0,0,0
1557,-40.375,-45.5625,17.1875,-0.89,-0.95,8.33,0,0,0
1558,-23.5625,-37.375,19.5625,-0.75,-0.97,8.73,0,0,0
1559,-22.0625,-32.0625,19.375,-0.81,-0.93,9.3,0,0,0
1560,-29.625,-28.8125,16,-0.87,-0.97,9.46,0,0,0
1561,-38.3125,-30.6875,12.9375,-0.56,-1.04,9.27,0,0,0
1562,-40.4375,-32.1875,12.375,-0.5,-1.17,9.11,0,0,0
1563,-35.1875,-30.5625,12.125,-0.29,-1.53,8.65,0,0,0
1564,-28.875,-27,12.625,-0.29,-1.58,8.72,0,0,0
1565,-18.125,-22.4375,13.6875,-0.25,-1.53,8.87,0,0,0
1566,-14.5625,-21.5,13.5,-0.28,-1.62,9.12,0,0,0
1567,-12.3125,-17.4375,12.125,-0.39,-1.79,9.46,0,0,0
1568,-16.9375,-14.75,6.5,-0.45,-1.92,9.85,0,0,0
1569,-21.5,-15.875,2.9375,-0.41,-1.96,9.87,0,0,0
1570,-24.25,-24,-3.375,-0.4,-2.09,9.53,0,0,0
1571,-20.875,-29,-5.25,-0.29,-2.04,9.45,0,0,0
1572,-13.875,-37,-6.0625,-0.03,-1.89,9.31,0,0,0
1573,-11.6875,-35.5625,-5.0625,0.2,-1.77,9.32,0,0,0
1574,-13.1875,-32.9375,-5.4375,0.28,-1.73,9.12,0,0,0
1575,-14.875,-25.8125,-7.1875,0.56,-1.86,8.86,0,0,0
1576,-13.5,-24,-6.6875,0.44,-1.9,8.86,0,0,0
1577,-6.1875,-23.4375,-6.0625,0.4,-1.74,8.97,0,0,0
1578,-3.125,-25.125,-5.8125,0.63,-1.74,8.85,0,0,0
1579,-1.25,-22.375,-5.125,0.68,-1.75,8.83,0,0,0
1580,-0.625,-14.9375,-4.75,0.75,-1.7,9.02,0,0,0
1581,-3.25,-13.0625,-5.1875,0.77,-1.75,9.05,0,0,0
1582,-5.4375,-8.6875,-5.75,0.65,-1.91,9.09,0,0,0
1583,-4.4375,-7.9375,-7,0.6,-1.99,9.21,0,0,0
1584,-0.25,-10.75,-8.4375,0.49,-1.98,9.44,0,0,0
1585,1.5625,-14.875,-8.875,0.53,-1.84,9.49,0,0,0
1586,-1.5625,-23.5625,-7.5625,0.82,-1.44,9.65,0,0,0
1587,-12.75,-28.5,-5.1875,0.84,-1.53,9.43,0,0,0
1588,-17.375,-29.375,-5.1875,1.05,-1.61,9.15,0,0,0
1589,-16.8125,-26.1875,-4.6875,1.49,-1.99,8.1,0,0,0
1590,-10.875,-20.25,-3.6875,1.62,-1.95,8,0,0,0
1591,-1.6875,-8.1875,0.0625,1.64,-1.86,8.41,0,0,0
1592,-1.1875,3.875,1.9375,1.47,-1.71,8.69,0,0,0
1593,-4.6875,5.125,2.5625,1.15,-1.7,9.38,0,0,0
1594,-10,2.3125,4.1875,1.01,-1.92,9.46,0,0,0
1595,-10.4375,-1.875,4.125,0.96,-2.09,9.45,0,0,0
1596,-5.625,-11.4375,2.375,1.09,-2.35,8.9,0,0,0
1597,2.5625,-10.25,2.125,1.69,-1.89,8.63,0,0,0
1598,4.3125,-5.375,4,1.75,-1.72,8.58,0,0,0
1599,3.125,8.75,9.75,1.85,-1.64,8.72,0,0,0
1600,3.75,20,14.9375,1.42,-2.03,8.94,0,0,0
1601,6.5625,19.875,14.75,1.03,-2.37,8.94,0,0,0
1602,14.375,14.9375,11.8125,1.06,-2.44,8.87,0,0,0
1603,18.5,13.875,10.75,1.16,-2.39,8.7,0,0,0
1604,29.1875,21.125,9.125,1.45,-2.41,8.12,0,0,0
1605,36.6875,30.125,8.75,1.38,-2.39,8.16,0,0,0
1606,48.625,49,7.125,1.11,-2.24,8.6,0,0,0
1607,49.5625,55.375,2.25,0.69,-2.15,9.37,0,0,0
1608,46.5,54.75,-0.625,0.45,-1.9,9.9,0,0,0
1609,38.6875,46.3125,-5.9375,0.04,-1.57,10.3,0,0,0
1610,35.125,40.1875,-8.875,0,-1.47,10.32,0,0,0
1611,27.5,28.625,-11.5625,0.06,-1.18,10.37,0,0,0
1612,23.625,23.25,-12.0625,-0.01,-1.24,10.18,0,0,0
1613,22.375,16.25,-14.4375,-0.05,-1.23,9.7,0,0,0
1614,24.3125,11.875,-16.5625,0.02,-1.12,9.64,0,0,0
1615,23.9375,10.375,-17.1875,-0.01,-0.92,9.53,0,0,0
1616,19.375,9.875,-17.25,0.1,-0.54,9.52,0,0,0
1617,13.8125,11.375,-15.625,0.16,-0.54,9.41,0,0,0
1618,14.125,13.4375,-15.0625,0.14,-0.88,8.89,0,0,0
1619,20.75,17.125,-14.6875,0.1,-0.95,8.86,0,0,0
1620,23.5,19.0625,-14.625,-0.05,-0.72,9.2,0,0,0
1621,20.75,22.9375,-14.75,-0.19,-0.35,9.66,0,0,0
1622,9.5625,20,-15.3125,-0.38,-0.45,9.6,0,0,0
1623,6.5625,19.75,-16.125,-0.34,-0.54,9.44,0,0,0
1624,8.875,19.6875,-16.25,-0.19,-0.76,8.69,0,0,0
1625,21.875,21.9375,-14.4375,-0.18,-0.7,8.56,0,0,0
1626,28.3125,24.75,-13.5625,-0.3,-0.54,8.64,0,0,0
1627,31.3125,30.5,-13.5,-0.44,-0.27,8.89,0,0,0
1628,28.3125,35.8125,-14.9375,-0.48,-0.23,8.85,0,0,0
1629,27.6875,38.875,-14.9375,-0.46,-0.19,8.59,0,0,0
1630,32.3125,49.1875,-13,-0.69,-0.2,8.51,0,0,0
1631,37.3125,54.5,-12.8125,-1.03,-0.19,8.81,0,0,0
1632,37.0625,55.0625,-13.6875,-1.28,-0.09,9.29,0,0,0
1633,32.0625,51.5,-16.8125,-1.6,0,9.58,0,0,0
1634,29.8125,49.4375,-18,-1.66,0.07,9.55,0,0,0
1635,28.9375,43.9375,-18.875,-1.72,0.22,9.47,0,0,0
1636,32.8125,35.875,-16.5,-1.72,0.4,9.36,0,0,0
1637,32.5625,32.125,-14.4375,-1.68,0.83,9.54,0,0,0
1638,21.375,30.0625,-11.25,-1.73,1.01,9.6,0,0,0
1639,13.3125,31.0625,-10.9375,-1.92,1.02,9.57,0,0,0
1640,2.8125,32.375,-11.4375,-2.26,0.48,9.38,0,0,0
1641,3.25,31.125,-12.625,-2.29,0.42,9.43,0,0,0
1642,7.5625,22.625,-12.1875,-2.31,0.74,9.54,0,0,0
1643,11.75,13.375,-8.5625,-2.24,0.83,9.61,0,0,0
1644,12.6875,9.375,-6.0625,-2.27,0.83,9.52,0,0,0
1645,10.8125,7.0625,-4.375,-2.37,0.87,9.52,0,0,0
1646,5.625,6.75,-4.9375,-2.43,0.9,9.64,0,0,0
1647,-5.4375,6.75,-7.5625,-2.31,0.69,9.2,0,0,0
1648,-6.5625,8.125,-8,-2.31,0.64,8.99,0,0,0
1649,-0.625,7.625,-6.375,-2.19,0.52,8.71,0,0,0
1650,12.4375,6.75,-2.6875,-2.27,0.68,8.94,0,0,0
1651,15.5625,5.875,-1.625,-2.26,0.78,9.06,0,0,0
1652,13.5,5.5625,-0.875,-2.31,0.71,9.07,0,0,0
1653,9.375,10.0625,-3.0625,-2.38,0.64,9.06,0,0,0
1654,8.3125,12.75,-5.5625,-2.59,0.43,9.11,0,0,0
1655,7.4375,14.0625,-9.375,-2.54,0.47,9.17,0,0,0
1656,8.625,11.875,-10,-2.44,0.57,9.03,0,0,0
1657,15.1875,8.625,-8.5,-2.45,0.77,8.99,0,0,0
1658,16.625,7.4375,-7.0625,-2.51,0.93,9.05,0,0,0
1659,14.375,6.625,-6.1875,-2.48,0.92,8.93,0,0,0
1660,12.6875,8.5625,-6.125,-2.51,0.9,8.89,0,0,0
1661,8.625,12,-7.0625,-2.74,0.75,8.93,0,0,0
1662,12.1875,12.25,-9.25,-2.82,0.66,8.82,0,0,0
1663,15.5625,12.875,-10.1875,-2.74,0.93,9.01,0,0,0
1664,13.4375,12.6875,-10.25,-2.72,1.05,9.16,0,0,0
1665,10.5625,12.3125,-10.0625,-2.67,1.18,8.92,0,0,0
1666,9.9375,13.125,-8.375,-2.75,1.03,8.67,0,0,0
1667,14.6875,16,-7.4375,-2.75,0.97,8.62,0,0,0
1668,17.75,18.1875,-7.8125,-2.88,0.84,8.7,0,0,0
1669,18.1875,20.0625,-8.75,-3.11,1.17,9.2,0,0,0
1670,15.1875,18.8125,-9.25,-3.18,1.24,9.22,0,0,0
1671,9,13.5,-9.9375,-3.15,1.39,9.16,0,0,0
1672,4.625,8.375,-7.125,-3.14,1.69,9.16,0,0,0
1673,2.375,5.8125,-4.8125,-3.1,1.7,9.18,0,0,0
1674,-0.4375,0.6875,0.0625,-3.41,1.45,9.51,0,0,0
1675,-7,-6.625,1.25,-3.54,1.49,9.64,0,0,0
1676,-14.9375,-11.9375,1.1875,-3.62,2.12,10.61,0,0,0
1677,-38,-34.5625,3.625,-3.61,2.06,10.26,0,0,0
1678,-44.875,-44.6875,5.8125,-3.39,1.93,9.86,0,0,0
1679,-47.8125,-53.9375,13.75,-2.79,1.87,9.04,0,0,0
1680,-48.1875,-52.875,23.125,-2.39,1.36,8.7,0,0,0
1681,-46.4375,-49.625,27.6875,-2.35,1.2,8.64,0,0,0
1682,-37,-46.75,33.8125,-2.61,0.49,8.47,0,0,0
1683,-31.125,-45.125,33.75,-2.58,0.33,9.09,0,0,0
1684,-37.5625,-44.8125,29.0625,-2.68,0.36,9.56,0,0,0
1685,-59.875,-44.1875,20.5625,-2.4,0.44,9.61,0,0,0
1686,-70.375,-43.875,17.6875,-2.15,0.15,9.32,0,0,0
1687,-71.4375,-40.375,16.9375,-1.92,-0.66,8.72,0,0,0
1688,-60.8125,-41.375,18.1875,-1.93,-0.83,8.83,0,0,0
1689,-39.75,-46.75,21.25,-2.14,-0.71,9.46,0,0,0
1690,-41.1875,-56.625,17.75,-2.13,-0.68,9.93,0,0,0
1691,-47.6875,-60,13.25,-1.94,-0.65,9.74,0,0,0
1692,-58.5625,-63.0625,5.75,-1.59,-0.68,9.28,0,0,0
1693,-59.1875,-61.375,4.5,-1.05,-0.74,8.54,0,0,0
1694,-49.875,-51.5625,7.125,-0.56,-0.77,8.25,0,0,0
1695,-37.25,-43,12.5625,-0.49,-0.85,8.32,0,0,0
1696,-31.6875,-38.5625,14.375,-0.6,-1.03,8.48,0,0,0
1697,-31.375,-33.9375,12.8125,-0.52,-1.19,8.86,0,0,0
1698,-33.9375,-30.625,11.1875,-0.41,-1.24,8.87,0,0,0
1699,-40.1875,-17.25,7.5,-0.27,-0.69,9.63,0,0,0
1700,-56.5,-20,9,-0.12,-0.91,9.57,0,0,0
1701,-57.9375,-22.125,11.9375,-0.21,-1.57,8.91,0,0,0
1702,-41.4375,-24.375,16.5,-0.2,-2.06,8.6,0,0,0
1703,-21.9375,-21.375,16.1875,-0.16,-2.24,8.69,0,0,0
1704,-17.875,-17.9375,14.8125,-0.22,-2.14,9.28,0,0,0
1705,-30.6875,-12.6875,7.3125,-0.05,-1.72,9.92,0,0,0
1706,-54.5625,-15.625,2.3125,0.15,-2.02,9.22,0,0,0
1707,-56.4375,-15.5,2.875,0.45,-2.24,8.62,0,0,0
1708,-33.375,-7.9375,8.5625,0.47,-2.81,7.92,0,0,0
1709,-6.75,-0.875,13.3125,0.34,-2.78,8.11,0,0,0
1710,-4.25,1.25,12.75,-0.08,-2.33,9.67,0,0,0
1711,-22.375,-1.875,8.8125,-0.29,-2.3,10.15,0,0,0
1712,-34,-4.4375,6.5,-0.23,-2.45,9.82,0,0,0
1713,-44.3125,-12.5625,4.8125,0.08,-2.91,9.01,0,0,0
1714,-38.9375,-14.75,6.125,0.16,-3.29,8.27,0,0,0
1715,-10.625,-13.1875,10.4375,0.29,-3.41,8.1,0,0,0
1716,6.75,-12.625,13.25,0.27,-3.47,8.16,0,0,0
1717,33.0625,-12.625,18.25,0.03,-3.11,8.99,0,0,0
1718,30.125,-16.8125,16.4375,-0.24,-2.77,9.76,0,0,0
1719,18.625,-16.25,11.8125,-0.24,-2.64,9.96,0,0,0
1720,-15.1875,-12.625,1.25,-0.1,-2.44,10.22,0,0,0
1721,-30.75,-15.875,-2.0625,-0.03,-2.82,9.27,0,0,0
1722,-27.625,-26.0625,-1.875,0.48,-3.12,8.02,0,0,0
1723,14,-28.0625,7.625,0.6,-3.29,7.71,0,0,0
1724,35,-26.9375,12.375,0.9,-2.76,7.7,0,0,0
1725,50.625,-20.5,20.125,0.82,-2.04,9.05,0,0,0
1726,42.625,-12.9375,21.5625,0.76,-1.88,9.44,0,0,0
1727,10.625,0.3125,20.0625,0.58,-2.02,9.33,0,0,0
1728,-4.75,6.6875,13,0.35,-2.58,8.77,0,0,0
1729,0.6875,4.25,11.875,0.44,-2.89,8.5,0,0,0
1730,29.25,0.875,16.625,0.5,-2.6,8.82,0,0,0
1731,44.5,-3,21.75,0.48,-2.21,9.47,0,0,0
1732,42.9375,-3.0625,22.875,0.41,-1.98,9.82,0,0,0
1733,26.75,0.9375,22.375,0.32,-1.77,9.95,0,0,0
1734,7.5625,5.3125,18.5625,0.29,-1.77,9.91,0,0,0
1735,0.875,7.875,16.1875,0.29,-2.09,9.61,0,0,0
1736,-3.125,9.375,12.0625,0.23,-2.49,9.05,0,0,0
1737,1.3125,9,11,0.2,-2.56,8.94,0,0,0
1738,16.75,6.0625,9.375,0.17,-2.59,8.77,0,0,0
1739,32.875,6.4375,7.25,0.23,-2.48,8.68,0,0,0
1740,38.25,10,6.25,0.19,-2.09,9.08,0,0,0
1741,34.5,16.375,7.0625,0.08,-1.48,9.71,0,0,0
1742,27.25,16.3125,8.6875,0.02,-1.43,9.9,0,0,0
1743,18.125,14.1875,12.375,-0.22,-1.71,9.73,0,0,0
1744,15.8125,9.875,13.5625,-0.15,-1.81,9.58,0,0,0
1745,19.8125,0.3125,12.6875,-0.26,-2.03,9.23,0,0,0
1746,28.9375,-4.3125,9.125,-0.19,-1.97,9.16,0,0,0
1747,30.0625,-4.9375,6.625,-0.11,-1.87,9.12,0,0,0
1748,27.875,0.9375,1.625,0.12,-1.51,9.1,0,0,0
1749,24.1875,4.4375,0.875,0.4,-1.31,9.15,0,0,0
1750,21.125,9.4375,3.9375,0.38,-1.39,8.82,0,0,0
1751,23.3125,10.4375,6.0625,0.26,-1.5,8.8,0,0,0
1752,27.0625,11.6875,5.625,0.04,-1.29,9.49,0,0,0
1753,15,10.4375,-0.4375,-0.01,-1.17,9.65,0,0,0
1754,7.375,10.6875,-4.3125,0.09,-1.07,9.61,0,0,0
1755,3.9375,10.25,-7.875,0.31,-1.07,8.99,0,0,0
1756,16.75,6,-4.5,0.51,-1.03,8.69,0,0,0
1757,25.6875,4.6875,-1.9375,0.49,-0.96,8.59,0,0,0
1758,37.75,9.25,0,0.49,-0.83,8.93,0,0,0
1759,30.75,19.4375,-3.6875,0.35,-0.64,9.58,0,0,0
1760,21.75,23.125,-7,0.1,-0.56,9.96,0,0,0
1761,8.125,20.25,-12.5,0.11,-0.78,9.53,0,0,0
1762,9.75,15.75,-12.75,0.24,-0.93,9.17,0,0,0
1763,33.5,12.5,-7.5625,0.29,-0.81,8.89,0,0,0
1764,51.9375,12.5,-4.0625,0.21,-0.69,9.15,0,0,0
1765,52.375,15.625,-4.75,-0.02,-0.41,9.75,0,0,0
1766,34.8125,18.5,-11.625,-0.32,-0.22,10.14,0,0,0
1767,24.125,16.6875,-16.5,-0.43,-0.36,9.98,0,0,0
1768,15,14.0625,-24.6875,-0.27,-0.37,9.23,0,0,0
1769,16.8125,12.8125,-26.3125,-0.23,-0.32,9.02,0,0,0
1770,27.3125,14.25,-28.25,-0.26,-0.21,9.02,0,0,0
1771,35.875,20.625,-29.625,-0.27,-0.02,9.12,0,0,0
1772,35.125,21.0625,-30.5625,-0.62,0.19,9.63,0,0,0
1773,24.625,18.875,-33.1875,-0.61,0.59,9.98,0,0,0
1774,17.75,16.5625,-33.25,-0.67,0.6,9.93,0,0,0
1775,9,12,-32.0625,-0.73,0.52,9.55,0,0,0
1776,8.8125,7.875,-29.6875,-0.72,0.39,9.41,0,0,0
1777,13.0625,6.6875,-28.625,-0.73,0.42,9.14,0,0,0
1778,20.375,3.5625,-26,-0.67,0.68,9.29,0,0,0
1779,20.3125,3.75,-24.875,-0.59,1.1,9.62,0,0,0
1780,7.125,3.3125,-24,-0.51,1.26,9.64,0,0,0
1781,-7.3125,2.9375,-24.75,-0.48,0.75,9.12,0,0,0
1782,-7.1875,5.375,-25.5,-0.45,0.61,8.93,0,0,0
1783,4.3125,7.375,-24.4375,-0.46,0.5,8.66,0,0,0
1784,19.75,9.9375,-22.375,-0.54,0.91,9.18,0,0,0
1785,22.5,12.1875,-21.3125,-0.63,1.22,9.6,0,0,0
1786,8.4375,13.875,-19.5,-1.01,1.69,10.42,0,0,0
1787,-15.6875,5.625,-18.375,-1.06,1.54,10.34,0,0,0
1788,-21.375,2,-18,-1.09,0.98,9.46,0,0,0
1789,-14.5625,-4.5625,-14.875,-1.05,0.62,8.83,0,0,0
1790,-3.5,-5.8125,-12.1875,-0.9,0.59,8.67,0,0,0
1791,18.3125,-5.6875,-4.3125,-0.98,0.85,8.91,0,0,0
1792,22.6875,-4.125,-0.25,-1.2,1.28,9.67,0,0,0
1793,15.25,-3.875,0.0625,-1.22,1.32,9.75,0,0,0
1794,-8.0625,-5.1875,-1.5625,-1.22,1.33,9.48,0,0,0
1795,-17.125,-4.5,-1.75,-0.9,1.24,8.93,0,0,0
1796,-22.0625,-1.0625,3.25,-0.84,0.77,8.44,0,0,0
1797,-14.1875,3.5625,7,-1.08,0.12,8.2,0,0,0
1798,15.8125,10.3125,12.9375,-1.44,-0.03,8.49,0,0,0
1799,37.375,9.75,14.5,-1.73,0.81,10.17,0,0,0
1800,33.625,7.6875,13.75,-1.84,1.17,10.66,0,0,0
1801,-2.6875,-1.1875,6.1875,-1.68,1.8,10.48,0,0,0
1802,-25.375,-5.125,2.625,-1.44,1.91,10.04,0,0,0
1803,-57.375,-7.625,4.625,-1.05,1.8,9.14,0,0,0
1804,-57.4375,-2.9375,15.75,-1.08,0.86,8.33,0,0,0
1805,-43.0625,2.25,20.3125,-1.29,0.02,8,0,0,0
1806,-7.1875,4.3125,25.1875,-1.78,-0.09,9.04,0,0,0
1807,3.75,1.5625,25.25,-1.86,0.04,9.42,0,0,0
1808,2.0625,-4.4375,22.0625,-1.52,0.46,10.01,0,0,0
1809,-18.75,-6.8125,19.3125,-1.48,0.32,9.72,0,0,0
1810,-26.5625,-5.8125,18.75,-1.38,0.22,9.42,0,0,0
1811,-26.9375,-1.1875,19.3125,-1.6,-0.6,9,0,0,0
1812,-9.4375,-3.5,18.8125,-1.65,-0.76,8.88,0,0,0
1813,0,-5.375,17.6875,-1.66,-0.69,9.19,0,0,0
1814,6.625,-5.6875,15,-1.59,-0.33,9.46,0,0,0
1815,-3.625,-6.4375,12.1875,-1.49,-0.13,9.5,0,0,0
1816,-8.6875,-5.5625,11.5,-1.26,-0.19,9.24,0,0,0
1817,-8.5625,-4.375,12.75,-1.4,-0.39,8.85,0,0,0
1818,-4,-3.3125,13.1875,-1.51,-0.23,8.94,0,0,0
1819,-0.25,-2.4375,11.875,-1.45,0.26,9.3,0,0,0
1820,-5.3125,-2.5,12.8125,-1.2,0.34,9.18,0,0,0
1821,-6.75,-2.3125,14.5,-1.08,0.32,9.05,0,0,0
1822,-4.125,-1.25,19,-0.95,0,8.9,0,0,0
1823,-0.75,-0.3125,20.5625,-1.11,-0.18,8.94,0,0,0
1824,2.5,-0.4375,20.8125,-0.96,-0.31,9.16,0,0,0
1825,2,0.5625,20.3125,-0.95,-0.33,9.18,0,0,0
1826,-1,2.4375,18,-0.95,-0.29,9.49,0,0,0
1827,-10.5625,1,14.125,-0.91,-0.3,9.53,0,0,0
1828,-15.4375,1.1875,12.25,-0.84,-0.34,9.51,0,0,0
1829,-24.125,2.3125,9.9375,-0.92,-0.26,9.7,0,0,0
1830,-31.875,1,8.9375,-1.09,-0.34,9.88,0,0,0
1831,-46.9375,0.5,2.6875,-1.08,-0.9,9.74,0,0,0
1832,-56.4375,2.5625,-6,-1.14,-1.07,9.65,0,0,0
1833,-56.875,1.25,-8.5625,-0.8,-1.52,9.15,0,0,0
1834,-45.8125,4.6875,-10.875,-0.76,-1.21,9.27,0,0,0
1835,-43.375,3,-11.4375,-0.86,-0.99,9.82,0,0,0
1836,-51.0625,0.5,-12.5625,-0.98,-0.76,10.14,0,0,0
1837,-73.8125,-2.75,-16.5625,-0.6,-1.15,9.86,0,0,0
1838,-83.625,-2.4375,-19,-0.46,-1.36,9.46,0,0,0
1839,-86.4375,-5.1875,-17.75,-0.57,-2.15,8.58,0,0,0
1840,-57.375,-3.8125,-15.3125,-0.79,-2.51,8.25,0,0,0
1841,-41.625,-4.125,-14.625,-0.6,-2.48,8.44,0,0,0
1842,-25.5625,-3.875,-13.25,-0.68,-1.69,9.91,0,0,0
1843,-48.75,-8.8125,-15.6875,-0.84,-1.56,10.27,0,0,0
1844,-65.3125,-8.9375,-19.625,-0.83,-2.09,9.84,0,0,0
1845,-86.75,-7.375,-28.1875,-0.7,-2.55,9.14,0,0,0
1846,-86.6875,-5.3125,-29.5,-0.26,-2.72,8.63,0,0,0
1847,-68.8125,-4.125,-25.5625,-0.64,-2.87,8.75,0,0,0
1848,-57.875,-7.5,-22.125,-0.5,-2.88,8.76,0,0,0
1849,-37.625,-14.625,-14.625,-0.28,-2.88,8.7,0,0,0
1850,-29.8125,-14.9375,-10.4375,-0.33,-2.91,8.71,0,0,0
1851,-25.5625,-8.8125,-5.9375,-0.84,-2.75,9.6,0,0,0
1852,-49.625,-7.4375,-10.25,-0.9,-2.92,10.01,0,0,0
1853,-63.3125,-9.5625,-14.375,-0.45,-3.41,9.12,0,0,0
1854,-62.6875,-14.1875,-14.875,-0.13,-4.12,7.91,0,0,0
1855,-44.6875,-13.0625,-10.625,0.02,-4.29,7.5,0,0,0
1856,0.8125,-10.875,0.4375,-0.17,-3.89,8.53,0,0,0
1857,4.4375,-10.125,3.625,-0.44,-3.64,9.32,0,0,0
1858,-12.0625,-9.5625,-0.375,-0.94,-3.57,10.2,0,0,0
1859,-49.9375,-9.875,-14.1875,-0.6,-4.06,9.47,0,0,0
1860,-57.375,-11.125,-18.125,0.04,-4.66,7.86,0,0,0
1861,-23.4375,-9.125,-15,0.33,-5.05,6.73,0,0,0
1862,45.5,-7.0625,1.875,0.45,-4.23,7.45,0,0,0
1863,69.6875,-5.0625,11.4375,0.19,-3.82,7.96,0,0,0
1864,78,5,16.4375,-0.42,-3.26,9.34,0,0,0
1865,53.9375,18.375,9.75,-0.41,-3.35,9.39,0,0,0
1866,48.6875,24.75,6,-0.5,-3.61,8.7,0,0,0
1867,82.6875,31.75,6.0625,-0.04,-3.31,7.41,0,0,0
1868,116.5625,31.375,12.9375,-0.08,-3.28,7.88,0,0,0
1869,163.9375,24.125,32,-0.74,-1.92,10.01,0,0,0
1870,155.625,19.125,32.4375,-1.4,-1.34,11.19,0,0,0
1871,132.5625,14.875,24,-1.58,-1.39,11.51,0,0,0
1872,82.3125,13.6875,3.8125,-1.43,-1.26,11.18,0,0,0
1873,48.125,7.75,-10.4375,-1.01,-1.05,10.4,0,0,0
1874,44.375,0.8125,-10.5625,-0.24,-1.19,9.14,0,0,0
1875,76.25,-11.3125,2.5,-0.04,-1.02,8.46,0,0,0
1876,103.625,-15.25,13.375,-0.18,-0.57,8.1,0,0,0
1877,138.25,-16.5,29.4375,-0.53,0.06,9.15,0,0,0
1878,135.9375,-13.8125,31.5,-0.3,0.53,9.88,0,0,0
1879,106.75,-7.875,28.0625,-0.78,0.38,9.94,0,0,0
1880,78.6875,-1.5,16.125,-0.92,0.38,9.83,0,0,0
1881,67.4375,-2.1875,9.4375,-0.88,0.54,9.75,0,0,0
1882,49.4375,-7.25,1,-0.74,0.67,9.61,0,0,0
1883,47,-9.75,0.25,-0.41,0.88,8.56,0,0,0
1884,69.5,-13.625,5.0625,-0.17,1.09,8.13,0,0,0
1885,86.25,-15.9375,10.9375,-0.13,1.24,8.35,0,0,0
1886,107.9375,-12.1875,20.6875,-0.53,1.67,9.14,0,0,0
1887,92.875,-10.125,19.875,-0.82,2.24,10.1,0,0,0
1888,74.875,-10.5,15.8125,-0.62,2.37,10.04,0,0,0
1889,45.4375,-17.5625,10.4375,-0.39,2.14,8.86,0,0,0
1890,47.25,-20.0625,12.375,-0.22,1.95,8.32,0,0,0
1891,55.75,-17.625,14.3125,-0.23,1.97,8.32,0,0,0
1892,68,-14.5625,15.0625,-0.29,2.18,8.31,0,0,0
1893,74.1875,-16.0625,11.3125,-0.18,2.54,8.14,0,0,0
1894,75.9375,-16.25,8.8125,-0.06,2.64,8.02,0,0,0
1895,81.5,-9.6875,6.5625,0.01,3.13,8,0,0,0
1896,81.9375,1.5625,4.1875,0.14,3.21,8.41,0,0,0
1897,75.25,5.25,2.5625,-0.15,3.49,9.13,0,0,0
1898,52.25,4.25,-4.1875,-0.42,3.42,9.09,0,0,0
1899,39.5625,-4.6875,-10.6875,-0.33,3.31,8.76,0,0,0
1900,43.75,-8.5625,-12.375,0.04,3.22,7.68,0,0,0
1901,64.4375,-10.3125,-10.375,0.25,3.63,7.61,0,0,0
1902,70.625,-11,-7.875,0.16,4.17,7.86,0,0,0
1903,71.0625,-8.5625,-5.4375,0.23,4.49,8.11,0,0,0
1904,66.0625,-6.125,-5.3125,0.11,4.63,8.12,0,0,0
1905,56.75,-4.5625,-4.4375,0.16,4.66,7.79,0,0,0
1906,56.6875,-5.1875,-2.4375,0.04,4.64,7.82,0,0,0
1907,58.3125,-10.9375,2.375,0,4.85,7.69,0,0,0
1908,55.0625,-18.125,5.3125,0,4.79,7.82,0,0,0
1909,52.75,-19.8125,4.9375,0.31,4.98,7.29,0,0,0
1910,57.9375,-18.8125,6.3125,0.46,4.93,7.02,0,0,0
1911,65.625,-20.125,8.625,0.32,4.88,6.71,0,0,0
1912,89.6875,-27.0625,13.125,0.56,5.18,7.13,0,0,0
1913,100.0625,-32.25,15.875,0.29,5.5,6.94,0,0,0
1914,96.9375,-34.375,16.125,0.54,6.16,6.89,0,0,0
1915,86.6875,-37.0625,16.4375,0.85,6.26,6.29,0,0,0
1916,88.5,-38.375,17.625,1.01,6.28,5.38,0,0,0
1917,114.1875,-32.375,24.0625,1.4,6.46,5.43,0,0,0
1918,122.4375,-20.125,31.3125,0.92,7.27,7.14,0,0,0
1919,104.9375,-19.0625,29.9375,0.82,7.3,7.32,0,0,0
1920,53.5,-24.375,20.1875,1,6.92,6.12,0,0,0
1921,25.8125,-25.3125,11.0625,1.44,6.36,4.71,0,0,0
1922,33.625,-20.3125,8.6875,1.57,6.12,3.88,0,0,0
1923,72.25,-9.4375,9.4375,1.58,6.53,4.37,0,0,0
1924,91,-2.625,11.625,1.25,7.25,5.51,0,0,0
1925,83.125,-2.4375,10.625,1.25,7.27,5.8,0,0,0
1926,47,-4,5.125,1.15,7.54,5.71,0,0,0
1927,22.5,-11.3125,-0.3125,1.12,7.46,4.53,0,0,0
1928,29.375,-13.1875,-1.125,1.43,7.17,3.15,0,0,0
1929,79.75,-4.8125,5.9375,1.98,7.63,2.93,0,0,0
1930,106.75,1.625,13.25,2.05,7.96,3.65,0,0,0
1931,122.0625,9.9375,25.625,1.5,8.46,5.2,0,0,0
1932,92.9375,4.375,27.875,1.37,8.34,5.25,0,0,0
1933,74.875,-3.5,26.4375,1.25,7.55,3.96,0,0,0
1934,71,-14.0625,17.4375,1.78,7.2,3.02,0,0,0
1935,86.375,-16.3125,14.1875,2.82,7.53,2.94,0,0,0
1936,115.4375,-15.125,20.5625,2.11,8,3.63,0,0,0
1937,116.1875,-12.3125,21.8125,2.02,8.25,4.3,0,0,0
1938,74.8125,-15.5,16.5625,1.48,8.3,3.62,0,0,0
1939,29.0625,-24,4.8125,1.41,8.24,2.43,0,0,0
1940,16.9375,-27.25,-0.75,2.23,8.09,1.56,0,0,0
1941,14.9375,-15.125,-1.25,2.63,8.1,1.4,0,0,0
1942,17.125,-3.125,0.6875,2.55,8.03,1.65,0,0,0
1943,11.75,11.8125,-0.25,1.86,8.06,2.05,0,0,0
1944,13.25,5,-2.25,1.54,7.84,2.01,0,0,0
1945,22.9375,-2.875,-5.125,1.65,8.05,1.49,0,0,0
1946,50.25,-11.1875,-7.3125,1.86,8.36,1.36,0,0,0
1947,61.6875,-12,-6.5,2.18,8.54,1.23,0,0,0
1948,78.0625,-8.8125,-3.6875,2.41,8.8,1.19,0,0,0
1949,96.25,-6.4375,4.3125,2.09,8.89,1.17,0,0,0
1950,105.8125,-9.125,8.875,2.07,8.97,0.96,0,0,0
1951,126.0625,-18.4375,16.875,2.01,8.5,0.87,0,0,0
1952,126.1875,-23.0625,18.5625,1.32,8.51,1.01,0,0,0
1953,113.75,-22.9375,9.625,2.19,9.34,1.28,0,0,0
1954,73.5,-17.875,2,2.32,8.42,1.48,0,0,0
1955,26.1875,-20.1875,-2.4375,1.88,8.7,1.18,0,0,0
1956,8.3125,-22.1875,-7.875,2.32,9.04,0.2,0,0,0
1957,-14.625,-18.4375,-4.9375,2.6,9.31,-0.46,0,0,0
1958,-19.9375,-14.3125,0.375,2.63,8.81,-0.77,0,0,0
1959,-18.8125,-3.25,10.1875,2.33,8.37,-0.82,0,0,0
1960,-12.125,1.0625,10.6875,2.02,7.92,-0.7,0,0,0
1961,14.1875,2.75,6.0625,1.53,7.61,-0.63,0,0,0
1962,32.6875,-2.375,1.8125,1.43,7.65,-0.58,0,0,0
1963,68.125,-17.5625,-9.75,2.08,8.68,-0.23,0,0,0
1964,74.875,-21.1875,-9.375,2.63,9.11,-0.02,0,0,0
1965,63.625,-20.25,-6.125,2.63,9.32,0.02,0,0,0
1966,35.8125,-15.6875,-2,2.41,8.88,-0.77,0,0,0
1967,32.375,-12.5,-0.1875,2.25,8.57,-0.99,0,0,0
1968,37.1875,-10.75,1.5,2.24,8.47,-1.14,0,0,0
1969,39.875,-11.8125,2.125,2.11,8.54,-1.09,0,0,0
1970,34.3125,-12.25,2.0625,2.12,8.34,-0.8,0,0,0
1971,20,-13.75,-3.25,1.57,7.57,-1.68,0,0,0
1972,28.125,-18.875,-9.125,1.74,7.66,-2.03,0,0,0
1973,71.8125,-28.6875,-16.3125,1.72,7.77,-2.02,0,0,0
1974,101.4375,-37.1875,-20.5625,2.25,8.7,-1.35,0,0,0
1975,98.6875,-37.8125,-22.3125,2.22,9.07,-1.03,0,0,0
1976,53.125,-34.375,-21.125,1.88,9.09,-1.21,0,0,0
1977,7.4375,-31.3125,-22.4375,1.53,8.33,-2.37,0,0,0
1978,5.875,-33.6875,-22.4375,1,8.03,-3.68,0,0,0
1979,41.4375,-42.5625,-25.5625,1.71,8.64,-4.34,0,0,0
1980,74.375,-27.1875,-15.5625,2.19,9.05,-4.28,0,0,0
1981,70.375,-14.1875,-7.125,2.32,9.26,-2.92,0,0,0
1982,30.8125,9.5625,1.6875,0.89,7.58,-2.41,0,0,0
1983,8.125,8.375,-11.1875,0.36,7.15,-2.61,0,0,0
1984,21.125,-4.75,-20.75,0.35,6.33,-3.49,0,0,0
1985,84.5,-31,-43.0625,0.87,7.15,-3.42,0,0,0
1986,111.625,-41.6875,-50.875,1.25,7.69,-3.32,0,0,0
1987,124.25,-46.875,-51.625,0.92,9.02,-3.31,0,0,0
1988,96.5,-47.8125,-43.9375,1.05,8.94,-3.84,0,0,0
1989,85.5625,-45.25,-36.8125,1.13,8.44,-4.99,0,0,0
1990,79.8125,-34.8125,-27.0625,1.38,8.27,-5.35,0,0,0
1991,81.9375,-24.125,-22.8125,1.21,8.33,-5.47,0,0,0
1992,69.4375,-3.9375,-12.0625,0.43,8.14,-5.08,0,0,0
1993,53.1875,2.625,-8,0.28,7.93,-5.12,0,0,0
1994,17.0625,11.3125,-8.375,-0.21,7.04,-5.54,0,0,0
1995,0.875,17.8125,-17.875,-0.2,6.86,-5.81,0,0,0
1996,10.125,19.9375,-24.375,0,7.1,-6.63,0,0,0
1997,61.875,21,-32.4375,0.45,7.75,-6.07,0,0,0
1998,88.25,18.6875,-30.6875,0.6,8.47,-4.6,0,0,0
1999,99.875,2.9375,-22.1875,0.65,8.56,-3.91,0,0,0
2000,62.4375,-14.125,-12.1875,0.69,8.55,-3.51,0,0,0
2001,35.9375,-22.625,-9.875,-0.15,7.91,-4.94,0,0,0
2002,16.0625,-34.75,-10.6875,0.2,7.12,-6.85,0,0,0
2003,30.125,-30.8125,-10.75,0.84,7.02,-7.56,0,0,0
2004,70,-12.625,-6.625,0.7,6.94,-6.86,0,0,0
2005,81,-1.4375,-5.1875,-0.02,6.53,-5.29,0,0,0
2006,72.6875,-2.6875,-6.5,-0.33,6.4,-5.06,0,0,0
2007,43.1875,-16.9375,-12.0625,-0.54,6.17,-5.82,0,0,0
2008,29.625,-29.9375,-15.625,-0.85,6.38,-7.38,0,0,0
2009,35,-33.5625,-15.6875,-0.6,6.11,-8.84,0,0,0
2010,72.6875,-26.4375,-16.125,0.01,5.78,-8.98,0,0,0
2011,122.125,-3.125,-22.1875,0.04,6.22,-7.39,0,0,0
2012,133.875,3.5625,-24.9375,-0.07,6.36,-6.5,0,0,0
2013,125,-3.25,-23.625,-0.42,6.84,-5.3,0,0,0
2014,77.3125,-32.8125,-20.1875,-1.07,6.9,-5.6,0,0,0
2015,60.5625,-45.75,-18.6875,-1.11,6.13,-7.82,0,0,0
2016,89.375,-55.25,-21.75,-0.48,4.48,-10.77,0,0,0
2017,131,-50,-25.5,-0.35,4.34,-10.59,0,0,0
2018,204.9375,-33.375,-29.3125,-0.52,5.21,-8.04,0,0,0
2019,205.4375,-33.0625,-22.9375,-0.92,5.53,-7.32,0,0,0
2020,177.1875,-40.125,-14.75,-1.06,4.97,-6.28,0,0,0
2021,105.5,-49.3125,-1.625,-1.17,4.34,-6.7,0,0,0
2022,80.3125,-50.8125,1.5,-1.66,2.93,-8.7,0,0,0
2023,82.4375,-44.4375,-1.5,-1.83,1.48,-10.18,0,0,0
2024,102,-37,-6,-1.85,1.56,-9.9,0,0,0
2025,124.875,-28.25,-13.8125,-1.69,2.66,-7.78,0,0,0
2026,92.4375,-32.875,-9.25,-1.64,2.88,-7.26,0,0,0
2027,64.5625,-36.4375,-3.875,-2,2.85,-7.77,0,0,0
2028,21.4375,-46.75,4.5625,-2.37,2.48,-8.71,0,0,0
2029,20,-50.6875,6.3125,-2.69,1.65,-10.76,0,0,0
2030,52.375,-43.75,5.0625,-2.36,1.21,-11.41,0,0,0
2031,80.4375,-21.875,-1.125,-2.24,1.34,-10.86,0,0,0
2032,78.75,-12.5,-3.6875,-2.12,1.98,-9.16,0,0,0
2033,49.8125,-4.625,-2.375,-1.79,1.96,-8.48,0,0,0
2034,31.4375,-2.75,2.25,-2.28,1.67,-8.25,0,0,0
2035,1.625,-11.5,9.9375,-3.06,1.05,-9.38,0,0,0
2036,6.625,-29.375,9.375,-2.52,0.43,-10.81,0,0,0
2037,21.875,-27.1875,7.6875,-2.31,0.58,-10.73,0,0,0
2038,40.875,-10.9375,4.5625,-2.16,1.21,-9.06,0,0,0
2039,16.1875,0.6875,6.3125,-2.49,1.39,-8.43,0,0,0
2040,-6.875,0.9375,8.875,-2.63,1.35,-8.57,0,0,0
2041,-38.9375,-3.375,11.625,-2.54,0.94,-10.27,0,0,0
2042,-29.5625,0,14.3125,-2.51,0.85,-10.53,0,0,0
2043,-19.6875,2.75,13.625,-2.79,1.14,-10.69,0,0,0
2044,-3.8125,5.75,10.3125,-2.62,1.61,-10.78,0,0,0
2045,1.75,8,11.75,-2.2,1.71,-10.51,0,0,0
2046,1.3125,19,18.875,-2.07,1.48,-9.52,0,0,0
2047,-28.3125,31,20.8125,-2.21,1.19,-8.47,0,0,0
2048,-51.5625,32.75,20.3125,-2.22,1.31,-8.27,0,0,0
2049,-97.8125,37.4375,20.8125,-2.49,1.92,-9.64,0,0,0
2050,-109.625,38.75,21.1875,-2.59,1.88,-10.43,0,0,0
2051,-84.5625,35.0625,19.75,-2.55,1.63,-11.52,0,0,0
2052,-53.4375,33.1875,17.3125,-2.1,1.5,-10.96,0,0,0
2053,0.6875,34.375,9.25,-1.97,1.86,-9.35,0,0,0
2054,2,29.9375,1.6875,-1.26,2.66,-8.22,0,0,0
2055,-13.3125,30.375,0.8125,-1.3,3.17,-7.3,0,0,0
2056,-61.5625,26.0625,11.9375,-1.09,3.42,-8.02,0,0,0
2057,-85,27.3125,18.9375,-1.04,3.15,-8.08,0,0,0
2058,-107.3125,30.125,27.875,-1.84,2.66,-9.47,0,0,0
2059,-89.6875,21.125,22.5625,-1.76,2.44,-9.7,0,0,0
2060,-69.0625,17.125,17.3125,-1.62,2.5,-9.86,0,0,0
2061,-30.5,11.9375,7.75,-1.26,3.37,-9.23,0,0,0
2062,-20.8125,10.4375,4.9375,-1.12,3.65,-8.91,0,0,0
2063,-24.6875,13.4375,5.8125,-0.85,4,-8.36,0,0,0
2064,-43.5625,21.4375,8.375,-0.78,3.85,-8.37,0,0,0
2065,-48.75,23.0625,8.75,-0.76,4.08,-8.08,0,0,0
2066,-50.5,20.625,10.0625,-1.05,4.47,-7.71,0,0,0
2067,-55.3125,0.5625,15.125,-0.64,4.82,-7.88,0,0,0
2068,-59.4375,-4.6875,19.375,-0.58,4.95,-7.89,0,0,0
2069,-76.1875,-4.125,27.5625,-0.56,4.8,-8.45,0,0,0
2070,-90.625,9.125,31.9375,-0.68,4.69,-8.64,0,0,0
2071,-91.4375,15.125,29.5625,-0.81,4.1,-8.82,0,0,0
2072,-75.5625,21.4375,19.75,-1.04,4.23,-8.2,0,0,0
2073,-62.6875,15.5,11.875,-0.97,4.51,-7.84,0,0,0
2074,-63.25,10.4375,9.6875,-0.65,5.37,-7.69,0,0,0
2075,-71.5,3.875,13.375,-0.26,5.68,-7.88,0,0,0
2076,-76.375,7.125,17.75,0.08,5.62,-7.77,0,0,0
2077,-84.0625,23.5625,22.1875,-0.3,5.68,-7.13,0,0,0
2078,-88.875,28.0625,19.4375,-0.63,5.88,-7.06,0,0,0
2079,-97.375,17.8125,12.375,-0.37,6.36,-6.89,0,0,0
2080,-98.625,11.5625,12,-0.24,6.52,-7.17,0,0,0
2081,-89.9375,5.75,15.25,0.05,6.33,-7.17,0,0,0
2082,-78.375,9.625,18.8125,-0.04,6.16,-6.79,0,0,0
2083,-76.4375,10.75,18.875,-0.27,6.34,-5.97,0,0,0
2084,-86.4375,10.3125,13.5625,-0.32,6.63,-5.84,0,0,0
2085,-92,7.5625,8.3125,-0.17,6.78,-6.15,0,0,0
2086,-92.1875,2.25,4.5,0.32,7.19,-6.66,0,0,0
2087,-82.8125,5.25,9.625,0.33,7.24,-6.56,0,0,0
2088,-79.375,9.875,11.875,0.38,7.15,-5.66,0,0,0
2089,-87.0625,18.75,12.6875,0,7.42,-5.12,0,0,0
2090,-96.8125,19.875,9.4375,0.05,7.92,-4.92,0,0,0
2091,-111.625,17.625,3.3125,0.43,8.19,-5.42,0,0,0
2092,-99.6875,16.4375,7.6875,0.26,8.31,-5.21,0,0,0
2093,-93.5625,15.5625,10.125,0.52,8.23,-5.08,0,0,0
2094,-89.875,17.25,13.4375,0.36,7.97,-4.58,0,0,0
2095,-86.6875,22.875,11.75,0.26,7.79,-4.46,0,0,0
2096,-80.4375,23.8125,7.875,0.38,7.8,-4.2,0,0,0
2097,-70.8125,23.4375,1.6875,0.59,8.77,-3.25,0,0,0
2098,-83.25,21.5625,2.5625,0.56,9,-2.94,0,0,0
2099,-96.875,20.875,4.75,1.01,9.15,-2.64,0,0,0
2100,-122.625,26.75,11.3125,0.89,8.79,-2.41,0,0,0
2101,-133.9375,29.5625,13.25,0.3,8.63,-2.11,0,0,0
2102,-153.25,26.0625,8,-0.24,8.5,-2.91,0,0,0
2103,-138.3125,21.0625,-4.1875,1.32,8.7,-3.28,0,0,0
2104,-119.875,25.625,-3.5625,1.12,8.91,-3.05,0,0,0
2105,-96.3125,38.125,5.3125,0.86,8.93,-2.25,0,0,0
2106,-101.4375,41.5625,6.5,0.85,9.02,-0.18,0,0,0
2107,-131.8125,43.8125,6.125,0.23,8.55,0,0,0,0
2108,-139.4375,39.5625,2.875,-0.04,8.37,-0.61,0,0,0
2109,-114.1875,25.125,-4.5,0.68,8.7,-1.02,0,0,0
2110,-67.9375,19.125,1.1875,0.76,9,-0.52,0,0,0
2111,-57.625,16.875,4.625,0.9,9.03,0.58,0,0,0
2112,-74,17.3125,5,0.76,8.84,1.52,0,0,0
2113,-92.4375,19.5625,1.375,0.69,8.61,1.11,0,0,0
2114,-102.75,21.4375,-4.375,0.57,8.75,0.25,0,0,0
2115,-73.25,17.4375,-3.0625,0.76,8.87,0.77,0,0,0
2116,-59.8125,16.5,-0.25,0.61,9.2,1.45,0,0,0
2117,-70.125,11.5625,1.625,0.67,9.24,2.71,0,0,0
2118,-93.875,10.875,-1.1875,0.86,9,2.55,0,0,0
2119,-134.5625,18.6875,-5.8125,0.65,8.5,1.59,0,0,0
2120,-135.3125,23.8125,-6,0.57,8.02,1.42,0,0,0
2121,-118.8125,27.0625,-5.1875,0.35,7.99,2.16,0,0,0
2122,-92.5625,27.4375,-5.875,0.22,8.29,3.58,0,0,0
2123,-115.4375,24,-11.5,0.45,8.37,5.14,0,0,0
2124,-145.625,22.1875,-16.0625,0.29,8.61,5.37,0,0,0
2125,-202.125,18.25,-24.25,0.26,7.42,3.22,0,0,0
2126,-178.8125,17.1875,-21.25,0.11,7.1,2.86,0,0,0
2127,-149.375,14.9375,-14.625,0.32,7.07,3.34,0,0,0
2128,-94.8125,15.5,-3.4375,0.15,7.05,5.66,0,0,0
2129,-100.6875,16.625,-3.625,-0.12,6.99,6.33,0,0,0
2130,-130.5625,14.8125,-11.375,-0.27,7.12,7.48,0,0,0
2131,-203.5625,10.0625,-29.5625,0.06,6.64,6.51,0,0,0
2132,-226.5625,8.6875,-32.625,-0.16,5.67,4.52,0,0,0
2133,-202.1875,25.5625,-35.3125,0.56,4.7,3.91,0,0,0
2134,-162.375,37.5,-30.6875,0.26,4.41,3.97,0,0,0
2135,-76.25,46.375,-17.75,-0.92,4.52,7.01,0,0,0
2136,-55.5625,39.1875,-15.1875,-1.21,4.63,8,0,0,0
2137,-68.25,21.125,-22.1875,-1.42,4.69,9.63,0,0,0
2138,-131.625,12.5,-42.875,-1.31,5.16,8.9,0,0,0
2139,-162.75,11.375,-54.5625,-0.21,4.83,7.35,0,0,0
2140,-172,27.3125,-57,-0.01,4.32,6.65,0,0,0
2141,-154.125,33.25,-47.6875,-0.56,3.44,6.59,0,0,0
2142,-93.5,25.875,-22.8125,-1.35,2.68,7.58,0,0,0
2143,-47.875,4.3125,-11.875,-1.65,2.51,8.17,0,0,0
2144,-44.0625,-3,-15.625,-2.08,2.86,9.75,0,0,0
2145,-76.125,-9.3125,-33.5625,-1.81,3.55,9.48,0,0,0
2146,-97.75,-8.0625,-41.875,-1.07,3.84,8.69,0,0,0
2147,-117.9375,2.9375,-44.75,-0.46,3.48,8.35,0,0,0
2148,-109.5,2.75,-30.6875,-1.06,2.3,8.39,0,0,0
2149,-98,-2.9375,-22.9375,-1.22,1.8,8.47,0,0,0
2150,-71.0625,-12.75,-15.6875,-1.52,1.25,8.69,0,0,0
2151,-49.625,-10.25,-20.3125,-1.23,1.59,9.07,0,0,0
2152,-42.5,-7.75,-22.5,-1.1,2.22,9.33,0,0,0
2153,-38.25,-10.6875,-19,-0.88,2.24,9.43,0,0,0
2154,-40.375,-12.5,-9.3125,-1.02,1.48,9.07,0,0,0
2155,-41.875,-11.5,-5.6875,-1.07,1.3,8.93,0,0,0
2156,-39.875,-2.8125,-8.0625,-1.07,1.16,8.83,0,0,0
2157,-32.1875,7.9375,-11.4375,-1.02,1.21,8.96,0,0,0
2158,-27.5625,8.4375,-9.6875,-0.91,1.34,9.19,0,0,0
2159,-14,6.25,-1.875,-1.25,1.32,9.65,0,0,0
2160,-9.4375,2.375,1.0625,-1.28,1.32,9.79,0,0,0
2161,-5,-4.875,3.9375,-1.48,0.97,9.54,0,0,0
2162,-4.125,-9.9375,4.3125,-1.52,0.71,9.31,0,0,0
2163,-4.4375,-7.875,0.875,-1.41,0.81,9.41,0,0,0
2164,-16.3125,2.1875,-9.4375,-1.27,0.96,9.3,0,0,0
2165,-26.0625,8.0625,-13.4375,-1.01,0.77,8.95,0,0,0
2166,-37.6875,21.9375,-19.25,-0.87,0.64,8.9,0,0,0
2167,-35.8125,25.25,-19.9375,-0.95,0.43,8.77,0,0,0
2168,-7.875,15.3125,-9.375,-1.77,0.05,9.14,0,0,0
2169,22.0625,-1.9375,-1.8125,-1.75,0.3,9.67,0,0,0
2170,22.1875,-9,-2.9375,-1.68,0.93,10.38,0,0,0
2171,1.6875,-16.4375,-10.6875,-1.54,1.23,10.55,0,0,0
2172,-13.4375,-20.875,-14.6875,-1.67,1.02,10.59,0,0,0
2173,-34.6875,-31.5,-18.625,-2.03,0.34,9.81,0,0,0
2174,-38.6875,-46.5,-19,-2.04,-0.53,9.71,0,0,0
2175,-43.4375,-51.5,-20.1875,-1.56,0.21,10.28,0,0,0
2176,-63.6875,-66.6875,-32.625,-0.48,-0.28,9.66,0,0,0
2177,-54.125,-65.25,-28.125,-0.27,-0.34,8.97,0,0,0
2178,-37.875,-64.3125,-24.6875,-0.14,-0.12,8.68,0,0,0
2179,-1.375,-60.75,-17.4375,0,0.31,9.28,0,0,0
2180,7.25,-59.5625,-13.8125,0,0.5,9.71,0,0,0
2181,-12.5,-60.125,-12,-0.37,0.13,10.18,0,0,0
2182,-58.5,-65.625,-13.5,0.24,-0.11,9.39,0,0,0
2183,-72,-63.5625,-14.0625,0.38,-0.33,8.78,0,0,0
2184,-59.1875,-50.4375,-13.875,0.47,-0.45,8.09,0,0,0
2185,-27.3125,-40.4375,-8.125,0.37,-0.4,9.26,0,0,0
2186,-18.25,-38.5625,-3.6875,0.27,-0.43,9.58,0,0,0
2187,-22.1875,-54.125,2.0625,0.62,-0.73,9.77,0,0,0
2188,-29.8125,-61.6875,4.1875,0.9,-1.08,9.66,0,0,0
2189,-30.75,-62.125,4.1875,0.63,-1.37,9.29,0,0,0
2190,-21,-64.3125,-0.1875,0.67,-1.09,9.05,0,0,0
2191,-12.9375,-64.5,-3.125,0.96,-0.95,8.96,0,0,0
2192,-3.8125,-65.5,-2.5625,1.96,-0.49,8.64,0,0,0
2193,-2.3125,-58.25,7.4375,2.06,-0.62,8.8,0,0,0
2194,-5.625,-51,12.5,1.75,-0.96,9.04,0,0,0
2195,-23.0625,-40.875,14.0625,1.46,-1.37,9.03,0,0,0
2196,-32.4375,-36.5,10.625,1.6,-1.66,8.86,0,0,0
2197,-34.5,-27.75,2.5,2.15,-1.82,8.59,0,0,0
2198,-24.625,-25.375,0.6875,2.08,-1.88,8.6,0,0,0
2199,6.375,-32.25,2.4375,1.91,-1.16,8.95,0,0,0
2200,20.1875,-47.125,6.3125,1.92,-1.09,9.23,0,0,0
2201,14.0625,-52.75,6.875,1.98,-1.33,9.61,0,0,0
2202,-16.75,-59.8125,0.4375,2.35,-1.41,9.5,0,0,0
2203,-33.1875,-57.9375,-4.5,2.52,-1.4,9.24,0,0,0
2204,-44.6875,-51.75,-10.5,2.92,-1.58,7.77,0,0,0
2205,-20.1875,-50.25,-6.0625,3.08,-1.46,7.54,0,0,0
2206,-5.875,-49.8125,-0.9375,3.42,-1.13,7.72,0,0,0
2207,5.25,-43.3125,9.3125,2.93,-1.2,8.62,0,0,0
2208,-0.5,-39.25,10.8125,2.78,-1.62,9.75,0,0,0
2209,-29.25,-43.1875,7.4375,2.5,-1.91,9.9,0,0,0
2210,-56.125,-63.8125,-3,2.79,-2.44,8.05,0,0,0
2211,-57.375,-72.75,-8.375,3.15,-2.42,7.17,0,0,0
2212,-32.5,-75.6875,-12.25,4.67,-1.76,6.06,0,0,0
2213,2.6875,-54.375,-5.125,5,-1.2,6.67,0,0,0
2214,14.5,-37.75,1.625,4.94,-1.1,7.14,0,0,0
2215,11.6875,-15.875,15.125,3.82,-1.78,8.83,0,0,0
2216,-16.75,-22.5,15.1875,3.4,-2.26,9.05,0,0,0
2217,-32.6875,-32.1875,8.1875,3.74,-2.64,8.79,0,0,0
2218,-51.625,-43,-5.3125,4.27,-2.52,7.5,0,0,0
2219,-48.375,-44.875,-7.1875,4.81,-2.29,6.4,0,0,0
2220,-19.1875,-40.75,-1.5625,5.03,-2.03,6.5,0,0,0
2221,6.25,-22.9375,6.4375,4.54,-1.81,7.58,0,0,0
2222,9.8125,-13.875,8.5,4.5,-1.78,7.92,0,0,0
2223,-0.9375,-14.1875,10.4375,4.52,-1.92,8.18,0,0,0
2224,-14.5625,-22.875,12.1875,4.26,-2.12,7.72,0,0,0
2225,-18.5625,-27.4375,11.9375,4.51,-2.36,7.44,0,0,0
2226,-17.1875,-22.1875,9.6875,4.9,-2.2,8.13,0,0,0
2227,-17.75,-11.9375,9.75,4.76,-2.19,9.13,0,0,0
2228,-33.9375,-33.625,13,4.43,-2.89,9.16,0,0,0
2229,-39.375,-51.0625,12.1875,4.65,-3.03,8.73,0,0,0
2230,-39.4375,-73.8125,7.75,5.64,-3.42,6.22,0,0,0
2231,-20.8125,-66.1875,3.875,5.81,-3.4,5.88,0,0,0
2232,-9.25,-52.4375,1.375,6.23,-3.07,5.75,0,0,0
2233,7.375,-25,-1.1875,5.68,-3.17,6.32,0,0,0
2234,10.625,-25.8125,-2.0625,5.78,-3,6.29,0,0,0
2235,12.0625,-23.6875,-4.625,5.57,-2.72,5.9,0,0,0
2236,6.0625,-14.125,-6.625,6.12,-2.86,6.05,0,0,0
2237,6.125,-2.25,-6.4375,6.09,-2.51,5.79,0,0,0
2238,4.9375,17.75,-4.9375,5.78,-2.77,5.87,0,0,0
2239,8.875,22.875,-4.375,6.11,-2.73,6.14,0,0,0
2240,22.875,40.9375,-4.5625,6.22,-2.36,6.7,0,0,0
2241,21.5625,59.0625,1.75,5.09,-2.53,7.02,0,0,0
2242,17.1875,62.5,2.5625,4.77,-2.64,7.13,0,0,0
2243,6.5,67.6875,-3.4375,5.11,-2.61,7.55,0,0,0
2244,0.5,81.4375,-8.125,5.19,-2.53,7.81,0,0,0
2245,-1.8125,86.8125,-7.5,4.9,-2.35,8.36,0,0,0
2246,-0.4375,82.25,-2.625,4.18,-2.71,8.57,0,0,0
2247,5.8125,73.75,-0.9375,4,-2.8,8.56,0,0,0
2248,20.25,56.25,-1.875,4.01,-2.4,9.04,0,0,0
2249,20,50.4375,-6.8125,4.11,-2.1,9.49,0,0,0
2250,11.6875,50.3125,-7.125,4.06,-1.74,9.8,0,0,0
2251,-10.8125,38,-3.25,3.75,-1.87,9.5,0,0,0
2252,-17.125,30.9375,-2.875,3.65,-2.39,8.66,0,0,0
2253,-10.3125,23.9375,-4.8125,3.89,-2.7,7.35,0,0,0
2254,1.5,25.875,-6.0625,3.96,-2.72,7.16,0,0,0
2255,28.4375,40.4375,-7.375,3.96,-1.89,8.41,0,0,0
2256,31.4375,52,-3.875,3.73,-1.9,8.8,0,0,0
2257,25.8125,51.3125,-2.125,3.18,-2.02,9.05,0,0,0
2258,13.125,46.0625,-2.75,3.04,-2.06,8.47,0,0,0
2259,9.6875,42.25,-4.0625,3.11,-2.21,8.22,0,0,0
2260,14.375,41.8125,-5.5625,3.2,-1.84,8.13,0,0,0
2261,22.25,50.375,-4.625,3.27,-1.74,8.35,0,0,0
2262,22.4375,51.875,-1.3125,3.02,-1.73,8.98,0,0,0
2263,18.875,48.4375,4.0625,2.72,-2.17,9.05,0,0,0
2264,17.6875,46,4.625,2.49,-2.63,8.73,0,0,0
2265,20.4375,42.5,0,2.32,-2.64,8.14,0,0,0
2266,31.5,46.75,-7.875,2.48,-2.08,7.9,0,0,0
2267,38.1875,52.125,-10.9375,2.48,-1.89,8.25,0,0,0
2268,42.8125,63.5,-12.625,2.19,-1.37,9.46,0,0,0
2269,31.375,61.4375,-10.875,1.82,-1.44,9.54,0,0,0
2270,26.1875,54.5,-9.5,1.72,-1.47,9.47,0,0,0
2271,24.4375,42.3125,-9.375,1.44,-1.79,8.87,0,0,0
2272,24.25,39.875,-17.875,1.68,-1.32,8.64,0,0,0
2273,24.25,39.875,-17.875,1.86,-0.79,8.75,0,0,0
2274,16.4375,55.5625,-20.4375,2.03,-0.47,8.91,0,0,0
2275,15.5,55.625,-2.5,1.84,-0.79,8.78,0,0,0
2276,15.5,55.625,-2.5,1.11,-1.48,8.57,0,0,0
2277,33.9375,48.75,-0.5,0.45,-1.67,8.7,0,0,0
2278,36.875,46.1875,-3.875,0.46,-1.52,8.51,0,0,0
2279,32.9375,52.9375,-16.9375,0.75,-0.79,8.13,0,0,0
2280,26.625,72.9375,-25.5,0.84,-0.59,8.25,0,0,0
2281,22.4375,81,-25,0.64,-0.36,8.54,0,0,0
2282,18.1875,92.75,-21.0625,-0.04,-0.18,8.76,0,0,0
2283,18.875,93.375,-17.75,-0.22,-0.28,8.77,0,0,0
2284,20.3125,89,-12.1875,-0.66,-0.5,8.81,0,0,0
2285,23.125,88.9375,-11.6875,-0.67,-0.74,8.6,0,0,0
2286,28.75,91.4375,-12.5,-0.95,-1.04,8.62,0,0,0
2287,46.9375,101.875,-19.625,-1.44,-0.6,9.43,0,0,0
2288,44.375,98,-22.375,-2.03,-0.2,10.1,0,0,0
2289,38.6875,90.8125,-24.5,-2.23,0.23,10.26,0,0,0
2290,23.125,74.4375,-26.125,-2.24,0.39,10.33,0,0,0
2291,9.375,60.3125,-22.625,-2.03,0.41,9.47,0,0,0
2292,11.5625,56.875,-19.25,-1.99,0.2,8.97,0,0,0
2293,36.0625,58.375,-13.625,-2.3,-0.01,8.76,0,0,0
2294,43.8125,59.375,-11.6875,-2.81,0.7,10.29,0,0,0
2295,30.6875,51.6875,-11.875,-3.41,1.19,11.09,0,0,0
2296,-7.0625,27.625,-14.375,-3.49,1.02,10.5,0,0,0
2297,-31.4375,16.6875,-16.4375,-2.75,0.89,8.99,0,0,0
2298,-33,16.125,-14.25,-2.44,0.71,8.24,0,0,0
2299,-3.8125,27.5,-2.8125,-2.14,0.42,7.28,0,0,0
2300,29.875,43,8.3125,-2.54,0.46,8.02,0,0,0
2301,34.8125,48.5625,10.5,-2.9,0.56,8.56,0,0,0
2302,14.8125,47.625,7.5625,-3.69,0.44,9.5,0,0,0
2303,-20.875,49.5,-2.3125,-3.79,0.46,9.71,0,0,0
2304,-35.375,47.8125,-5.5,-3.54,0.48,9.25,0,0,0
2305,-30.5,46.25,-2.3125,-3.11,-0.02,8.36,0,0,0
2306,16.3125,46.25,5.875,-3.21,-0.42,7.8,0,0,0
2307,37.625,45.1875,8.125,-3.72,-0.29,8.67,0,0,0
2308,35.375,38.0625,4.8125,-4.51,0.24,10.32,0,0,0
2309,13.5,28.6875,-0.3125,-4.99,0.19,10.15,0,0,0
2310,-35.25,20.3125,-16.5,-4.34,0.08,8.97,0,0,0
2311,-49.0625,37.3125,-22.3125,-3.85,-0.06,8.28,0,0,0
2312,-39.4375,42.125,-18.0625,-3.46,-0.07,7.33,0,0,0
2313,17.3125,65.5,-0.5,-3.5,-0.1,7.27,0,0,0
2314,42.375,71.5625,5.6875,-4.18,0.03,8.1,0,0,0
2315,47.8125,59.3125,8.625,-5.24,0.31,10.26,0,0,0
2316,33.25,46.0625,4.625,-5.59,0.35,10.53,0,0,0
2317,-11.875,19.25,-10.1875,-5.66,0.47,9.79,0,0,0
2318,-44.125,10.75,-19.5,-5.26,0.44,9.03,0,0,0
2319,-43.375,17.25,-17.6875,-4.38,0.53,7.5,0,0,0
2320,-22.1875,33.1875,-1.125,-3.88,0.53,6.83,0,0,0
2321,-7.625,40.3125,6.75,-3.89,0.27,7.14,0,0,0
2322,16.4375,48.1875,11.9375,-5.17,-0.72,7.7,0,0,0
2323,17.9375,51.1875,1.8125,-5.43,-0.71,8.05,0,0,0
2324,6.625,51.125,-6,-5.91,-0.41,8.97,0,0,0
2325,-25.3125,48.6875,-19,-5.75,0.25,8.8,0,0,0
2326,-37.9375,43.25,-20.5625,-5.4,0.2,8.2,0,0,0
2327,-34.625,37.375,-13,-4.92,0.19,7.59,0,0,0
2328,-3.5625,33.375,0.3125,-5.52,-0.75,7.11,0,0,0
2329,14.4375,31.75,2.9375,-5.79,-0.93,7.34,0,0,0
2330,22.625,31.75,-0.125,-6.17,-0.43,8.45,0,0,0
2331,-8.875,28.9375,-11,-6.57,0.02,8.82,0,0,0
2332,-22.375,23.625,-15.625,-6.42,0.09,8.17,0,0,0
2333,-26.125,13.125,-15.125,-5.76,0.15,7.04,0,0,0
2334,-13.625,20.5625,-4.5,-5.43,0.07,6.71,0,0,0
2335,-1.0625,26.875,1.9375,-5.5,-0.29,6.09,0,0,0
2336,27.1875,38.625,9.75,-5.98,-0.51,6.7,0,0,0
2337,29.9375,42.4375,9.25,-6.35,-0.55,7.6,0,0,0
2338,16.4375,41.1875,2.5,-6.75,-0.44,7.72,0,0,0
2339,-11.9375,31.375,-9.1875,-6.75,0.09,8.12,0,0,0
2340,-25.8125,27.125,-11.75,-6.39,0.1,7.77,0,0,0
2341,-21.8125,24.0625,-5.4375,-6.07,-0.23,6.96,0,0,0
2342,-3.75,22.4375,-0.3125,-6.37,-0.63,6.83,0,0,0
2343,30.9375,13.4375,5.125,-6.95,-0.55,7.82,0,0,0
2344,32.4375,5.6875,4.75,-7.19,-0.22,8.96,0,0,0
2345,10.8125,-13.0625,-0.4375,-7.3,-0.19,9.11,0,0,0
2346,-14.75,-34.1875,-7.3125,-7.14,-0.17,8.81,0,0,0
2347,-22.8125,-46.25,-9.875,-7.02,-0.24,8.59,0,0,0
2348,-24.9375,-68.5625,-10.5,-6.59,-0.01,7.92,0,0,0
2349,-21.1875,-79.625,-8.125,-6.44,-0.13,7.66,0,0,0
2350,-8.6875,-87.8125,-2.125,-6.1,-0.11,7.52,0,0,0
2351,-5.4375,-88.5625,3.5625,-5.88,-0.3,7.58,0,0,0
2352,-8.25,-87.1875,3.25,-6.07,-0.58,8.04,0,0,0
2353,-29.4375,-89.0625,-4.0625,-5.98,-0.47,8.36,0,0,0
2354,-40.75,-89,-8.1875,-5.71,-0.5,8.32,0,0,0
2355,-43.875,-89.125,-9.4375,-4.95,-0.43,7.92,0,0,0
2356,-14.8125,-96.75,0.75,-4.94,-0.24,7.87,0,0,0
2357,0.6875,-106.4375,8.6875,-5.03,-0.52,8.11,0,0,0
2358,-2.8125,-118.5,15.9375,-4.6,-0.4,9.25,0,0,0
2359,-29.0625,-105.8125,13.625,-4.47,-0.61,9,0,0,0
2360,-37.625,-96.25,8.875,-4.24,-1.32,7.97,0,0,0
2361,-39,-79.375,2.6875,-3.42,-1.13,7.78,0,0,0
2362,-19.25,-66.5625,6.625,-3.04,-1.06,7.59,0,0,0
2363,-6.125,-59.875,10.8125,-2.9,-1.06,7.68,0,0,0
2364,-0.875,-46.375,14.375,-3.34,-1.04,9.27,0,0,0
2365,-10.5,-43.75,11.0625,-3.26,-1.2,9.58,0,0,0
2366,-23.8125,-43.875,4.375,-3.21,-1.35,9.3,0,0,0
2367,-22.75,-49.125,2.1875,-3.21,-1.41,9.13,0,0,0
2368,-11.0625,-56,-0.375,-2.9,-1.28,8.9,0,0,0
2369,-8,-57.5,0,-2.52,-0.99,9.21,0,0,0
2370,-16.0625,-54.0625,1.8125,-2.4,-0.96,9.24,0,0,0
2371,-28,-46.3125,2.1875,-2.33,-0.81,9.54,0,0,0
2372,-32.75,-51.8125,3.5,-2.35,-1,9.46,0,0,0
2373,-27.75,-61.375,5.6875,-2.07,-1.26,9.48,0,0,0
2374,-24.5,-66.125,7.25,-1.99,-1.43,9.32,0,0,0
2375,-10.5625,-70.375,9.125,-1.55,-1.79,8.42,0,0,0
2376,3.8125,-62.6875,8.0625,-1.45,-1.81,8.39,0,0,0
2377,4.75,-54.625,7.1875,-0.96,-1.67,8.48,0,0,0
2378,-8.375,-35.125,5,-1.13,-1.46,9.22,0,0,0
2379,-18.6875,-31,3.25,-1.12,-1.57,9.25,0,0,0
2380,-24.9375,-30.75,1.9375,-0.89,-1.58,9.24,0,0,0
2381,-12.3125,-41.75,4.375,-1.08,-1.92,8.9,0,0,0
2382,-4.375,-44.0625,3.875,-0.86,-1.82,8.93,0,0,0
2383,0.6875,-39.375,4.3125,-0.41,-1.58,8.98,0,0,0
2384,-1.3125,-32.6875,6.8125,-0.63,-1.62,9.08,0,0,0
2385,-0.8125,-33.5,7.375,-0.62,-1.65,9.13,0,0,0
2386,1.75,-36.625,7.0625,-0.72,-1.6,9.46,0,0,0
2387,-9.0625,-39.3125,3.875,-0.72,-1.6,9.57,0,0,0
2388,-18.875,-38.625,1.9375,-0.44,-1.48,9.34,0,0,0
2389,-30.0625,-27.375,2.25,0.25,-1.4,8.61,0,0,0
2390,-27.0625,-23.5625,6.6875,0.38,-1.52,8.63,0,0,0
2391,-4,-19.9375,15.625,-0.25,-1.87,8.88,0,0,0
2392,9.125,-27.0625,17.125,-0.45,-1.92,9.26,0,0,0
2393,3.8125,-30.25,13.6875,-0.47,-1.76,9.91,0,0,0
2394,-17.5625,-30.3125,6.5625,-0.07,-1.66,9.39,0,0,0
2395,-22.625,-26.375,5.3125,0.18,-1.53,9.01,0,0,0
2396,-19.25,-17.9375,10.4375,0.49,-1.15,8.71,0,0,0
2397,-14.875,-15.375,15.375,0.66,-1.05,8.7,0,0,0
2398,-5.625,-11.0625,25.875,0.48,-1.53,8.66,0,0,0
2399,1.5,-5.375,27.6875,0.33,-1.73,8.75,0,0,0
2400,1.5,-0.8125,25.4375,-0.01,-2.17,9.37,0,0,0
2401,-6.6875,7.875,16.375,0,-1.88,9.88,0,0,0
2402,-12.4375,7.25,13.75,0.08,-1.76,10.04,0,0,0
2403,-14.875,-4.1875,16.0625,0.17,-1.33,10.1,0,0,0
2404,-8.5,-21.0625,26.5625,0.21,-1.25,9.97,0,0,0
2405,-4.625,-24.5625,32.5625,0.39,-1.65,9.54,0,0,0
2406,-1,-21.5625,36.9375,0.31,-2.18,9.18,0,0,0
2407,-0.8125,-14.75,36.4375,0.27,-2.44,9.46,0,0,0
2408,-8.125,-7.375,31.875,0.09,-2.41,9.59,0,0,0
2409,-12.5625,-11.5625,29.9375,0.43,-2.1,9.18,0,0,0
2410,-10.75,-15,32.875,0.67,-2,8.98,0,0,0
2411,0.9375,-17,42.6875,0.85,-2.42,8.42,0,0,0
2412,13.375,-10.25,47.375,0.55,-2.8,8.45,0,0,0
2413,15.8125,-5.8125,42.875,0.06,-3.23,8.63,0,0,0
2414,7.75,2.125,27.875,-0.2,-3.05,8.95,0,0,0
2415,1.3125,4.9375,21.125,0.06,-2.93,8.82,0,0,0
2416,1.1875,11.875,16.8125,0.74,-2.65,8.13,0,0,0
2417,20.5,20.75,23.4375,0.69,-2.76,8.12,0,0,0
2418,30.625,25.0625,25.625,0.06,-2.81,8.54,0,0,0
2419,42.75,30.5625,24.0625,-0.25,-2.59,9.41,0,0,0
2420,41,27.4375,22.3125,-0.64,-2.01,10.3,0,0,0
2421,24,10.0625,18.875,-0.58,-1.7,10.45,0,0,0
2422,13.5625,1.9375,17.75,-0.55,-1.55,10.37,0,0,0
2423,-5.0625,-10.1875,19.1875,-0.24,-1.55,9.54,0,0,0
2424,-5.875,-10.3125,23.75,0.04,-1.65,8.49,0,0,0
2425,1.6875,-6.25,26.875,-0.08,-1.42,8.34,0,0,0
2426,31.1875,4.625,37,0.38,-1.26,8.14,0,0,0
2427,46.5,7.6875,45.3125,-0.01,-1.02,9.11,0,0,0
2428,45.875,7,53.1875,-0.75,-1.29,10.33,0,0,0
2429,8.625,4.4375,43.25,-0.93,-1.49,10.57,0,0,0
2430,-8.625,1.25,36.25,-0.56,-2.32,9.93,0,0,0
2431,-19.375,-2,25.9375,0.18,-2.73,9.01,0,0,0
2432,-15.625,-1.4375,23.25,0.2,-2.75,8.83,0,0,0
2433,-3.25,1.9375,18.75,0.12,-2.94,8.7,0,0,0
2434,9.9375,9.5,9.4375,-0.07,-3.08,8.81,0,0,0
2435,13.5,13,3.5625,-0.13,-2.94,8.94,0,0,0
2436,13.125,20,-6.5,0.01,-2.13,9.76,0,0,0
2437,1.3125,18.3125,-8.4375,-0.01,-1.95,9.95,0,0,0
